"Time (s)","Linear Acceleration x (m/s^2)","Linear Acceleration y (m/s^2)","Linear Acceleration z (m/s^2)","Absolute acceleration (m/s^2)"
7.110000006E-4,-1.516786013E-2,-3.053332874E-2,-1.285101056E-2,3.643482698E-2
1.066099998E-2,-7.564058667E-4,-4.212950398E-2,5.181510150E-2,6.678526783E-2
2.061099999E-2,-6.422083746E-3,-3.331328692E-2,-4.967443585E-2,6.015453285E-2
3.056099999E-2,-2.911410900E-3,-3.485888874E-2,9.153816104E-3,3.615813583E-2
4.051100000E-2,-5.042186533E-3,-2.670802087E-2,7.656928897E-3,2.823775104E-2
5.046100001E-2,-9.654639261E-3,-4.792058179E-3,-4.144097149E-2,4.281973843E-2
6.041099998E-2,-7.983308597E-3,3.055677242E-3,2.681766987E-2,2.814707439E-2
7.036200000E-2,-1.540674173E-2,2.101953428E-2,-4.069252789E-2,4.832256552E-2
8.031200001E-2,-1.080366739E-2,2.918822702E-2,-8.060971498E-3,3.215044459E-2
9.026199998E-2,-6.596577452E-3,2.046992342E-2,1.020046771E-2,2.380298595E-2
1.002120000E-1,-1.606220090E-2,2.327089503E-2,-4.024463117E-2,4.918494883E-2
1.101617500E-1,-1.324895013E-2,2.293506386E-2,1.708556414E-2,3.151933273E-2
1.201117500E-1,-1.404414405E-2,1.537272281E-2,-2.362918317E-2,3.149439452E-2
1.300617500E-1,-1.105221060E-2,7.517198715E-3,-1.869004011E-2,2.297775522E-2
1.400117500E-1,1.392400204E-3,-1.435699293E-2,7.694935799E-4,1.444486569E-2
1.499617500E-1,-9.306515227E-3,-1.055206809E-2,-3.605393171E-2,3.870198133E-2
1.599117500E-1,-5.441935086E-3,-2.070288471E-2,7.506070733E-3,2.268402942E-2
1.698617500E-1,4.400600796E-3,-3.207760123E-2,-4.467857480E-3,3.268485182E-2
1.798117500E-1,-7.020208226E-3,-3.162439177E-2,-6.562914848E-3,3.305234227E-2
1.897627500E-1,-8.487027953E-3,-3.115763321E-2,-3.718829155E-3,3.250626772E-2
1.997127500E-1,-4.011409208E-3,-2.062274131E-2,-2.258136213E-2,3.084326148E-2
2.096627500E-1,-1.345318241E-2,-2.553033682E-2,-1.030688703E-2,3.064340280E-2
2.196127500E-1,-1.201088444E-2,-2.540095347E-2,-4.918093085E-3,2.852468093E-2
2.295627500E-1,-9.946739660E-3,-1.216149593E-2,-3.021665633E-2,3.405709812E-2
2.395127500E-1,-1.296580785E-2,1.791714784E-3,3.164513111E-3,1.346612633E-2
2.494627500E-1,-1.562002806E-2,1.005487660E-2,-1.824097395E-2,2.603495632E-2
2.594127500E-1,-1.631549040E-2,2.705850206E-2,-6.266461015E-3,3.221220723E-2
2.693627500E-1,-2.294950374E-2,1.857209994E-2,4.211749434E-3,2.982182844E-2
2.793127500E-1,-1.705945266E-2,2.238249741E-2,-2.722288191E-2,3.915464743E-2
2.892637500E-1,-8.603830654E-3,2.214809258E-2,-3.870856762E-3,2.407379154E-2
2.992137500E-1,-4.542340958E-3,1.115668846E-2,-1.899058700E-2,2.248881841E-2
3.091637500E-1,-5.547125582E-3,-2.968772999E-3,-1.809186995E-2,1.915463322E-2
3.191137500E-1,-5.111905443E-3,-1.250981639E-2,-1.926072836E-3,1.365052526E-2
3.290637500E-1,-5.846247207E-3,-2.089885323E-2,-2.842097640E-2,3.575881112E-2
3.390137500E-1,3.704311615E-3,-2.739136852E-2,3.761513829E-3,2.789548315E-2
3.489637500E-1,-2.390830549E-3,-2.005967729E-2,-4.771327972E-3,2.075746358E-2
3.589137500E-1,-1.400117158E-2,-3.230494828E-2,-1.450109482E-2,3.807787074E-2
3.688637500E-1,-1.596563048E-2,-1.841221514E-2,4.060306549E-3,2.470621606E-2
3.788137500E-1,-1.509935634E-2,-2.104872468E-2,-8.514130712E-3,2.726774274E-2
3.887637500E-1,-1.719508066E-2,-1.049329901E-2,-2.377477884E-3,2.028379954E-2
3.987137500E-1,-1.120939563E-2,-3.878380484E-3,-7.616583109E-3,1.409626631E-2
4.086647500E-1,-1.934254827E-2,6.617631996E-3,-2.093887925E-2,2.926369578E-2
4.186147500E-1,-1.886679961E-2,1.533635130E-2,-3.724676371E-3,2.459741883E-2
4.285647500E-1,-1.104195056E-2,2.422609710E-2,-1.689786851E-2,3.153357596E-2
4.385147500E-1,-9.391848031E-3,2.480720527E-2,-1.465253770E-2,3.030348336E-2
4.484647500E-1,-5.723556178E-3,1.572860811E-2,-1.569918931E-2,2.294804465E-2
4.584147500E-1,-7.690911270E-3,2.500153839E-2,-2.123825669E-2,3.369407345E-2
4.683647500E-1,-6.254017409E-3,6.325444803E-3,-7.616583109E-3,1.171052193E-2
4.783147500E-1,-7.895006505E-3,-8.182155043E-3,-7.466894388E-3,1.360269461E-2
4.882647500E-1,-8.390937187E-3,-2.628962975E-3,-1.480222642E-2,1.721700265E-2
4.982147500E-1,-6.606462901E-3,-1.737290454E-2,-5.820903182E-3,1.947680872E-2
5.081647500E-1,-1.030154231E-2,-2.139904599E-2,-9.414017200E-3,2.554730246E-2
5.181147500E-1,-1.377107451E-2,-2.854571852E-2,-2.828298211E-3,3.181980217E-2
5.280657500E-1,-1.764805258E-2,-2.229732449E-2,-8.515884876E-3,2.968408217E-2
5.380157500E-1,-1.331744021E-2,-1.879621276E-2,-8.666158319E-3,2.461207281E-2
5.479657500E-1,-3.436938543E-3,-1.674242851E-2,-1.300654650E-2,2.147770264E-2
5.579157500E-1,-1.536798565E-2,-7.623426178E-3,-8.516469598E-3,1.915259419E-2
5.678657500E-1,-1.762663258E-2,-4.822399747E-3,-4.175496697E-3,1.874535911E-2
5.778157500E-1,-1.190778159E-2,3.599134823E-3,-1.794685900E-2,2.183663852E-2
5.877657500E-1,-1.186022271E-2,7.487533232E-3,-2.379816771E-3,1.422643892E-2
5.977157500E-1,-1.691353722E-2,1.354368178E-2,-7.020751834E-3,2.277696235E-2
6.076657500E-1,-9.905644697E-3,1.397480886E-2,-2.154055774E-2,2.752113202E-2
6.176157500E-1,-8.006747710E-3,1.506538311E-2,-2.154055774E-2,2.747852625E-2
6.275657500E-1,-1.752299068E-2,5.309550469E-3,-2.124118030E-2,2.804343540E-2
6.375167500E-1,-7.259564912E-3,-1.398288533E-3,-2.303744495E-2,2.419463501E-2
6.474667500E-1,-2.300993563E-3,1.354178600E-3,-2.139086902E-2,2.155684691E-2
6.574167500E-1,-5.517236260E-3,-3.100723643E-3,-1.495483875E-2,1.623889113E-2
6.673667500E-1,-1.765687822E-2,-2.412739792E-2,-1.495483875E-2,3.342968563E-2
6.773167500E-1,-1.569241019E-2,-1.291986609E-2,-9.266667366E-3,2.233933306E-2
6.872667500E-1,-8.021566747E-3,-1.611307167E-2,-7.469817996E-3,1.948781139E-2
6.972167500E-1,-1.730079192E-2,-1.567773276E-2,-1.704989612E-2,2.891033835E-2
7.071667500E-1,-1.805535226E-2,-1.335909706E-2,-6.572270393E-3,2.340205029E-2
7.171167500E-1,-1.841515245E-2,-1.559692242E-2,-1.809830189E-2,3.016505196E-2
7.270667500E-1,-9.282125942E-3,-1.109112656E-2,-1.031390369E-2,1.776365840E-2
7.370167500E-1,-1.547083269E-2,-4.985477678E-3,-1.300771594E-2,2.081831708E-2
7.469667500E-1,-6.984887389E-3,1.782117127E-3,-1.240896106E-2,1.435085042E-2
7.569177500E-1,-7.330983169E-3,6.614557640E-3,-1.659907579E-2,1.931385524E-2
7.668677500E-1,-1.239165695E-2,8.005948286E-3,-2.198728502E-2,2.647808665E-2
7.768177500E-1,-1.045395364E-3,1.284935690E-2,-1.779600084E-2,2.197490546E-2
7.867677500E-1,-8.981167926E-3,7.379108495E-3,-1.225634873E-2,1.689173477E-2
7.967177500E-1,-1.259951177E-2,1.561272360E-2,-1.644763291E-2,2.594281140E-2
8.066677500E-1,-8.874940462E-3,6.642167461E-3,-9.113470316E-3,1.435055044E-2
8.166177500E-1,-4.003652511E-3,4.198561222E-3,-1.255631089E-2,1.383177837E-2
8.265677500E-1,-3.990656161E-3,-1.064467337E-4,-9.263743758E-3,1.008729973E-2
8.365177500E-1,-1.413580372E-2,-9.322412345E-3,-1.734693468E-2,2.424137912E-2
8.464677500E-1,-1.179825593E-2,-1.153286543E-2,-1.794510484E-2,2.437688691E-2
8.564177500E-1,-1.131456329E-2,-1.213562200E-2,-1.195814073E-2,2.045213420E-2
8.663677500E-1,-1.104827286E-2,-2.734667386E-2,-1.719607651E-2,3.414103033E-2
8.763187500E-1,-1.909220978E-2,-1.917237145E-2,-1.195580184E-2,2.958096514E-2
8.862687500E-1,-1.562798118E-2,-1.721385113E-2,-1.734459579E-2,2.900664527E-2
8.962187500E-1,-1.200138272E-2,-6.127959662E-3,-1.704521835E-2,2.172842712E-2
9.061687500E-1,-1.198840464E-2,-6.081328117E-3,-1.315214217E-2,1.880646806E-2
9.161187500E-1,-8.593214303E-3,6.260252916E-3,-6.714942455E-3,1.257475848E-2
9.260687500E-1,-1.111161465E-2,1.001018195E-2,-8.211829662E-3,1.706182491E-2
9.360187500E-1,-6.771413768E-3,8.408117951E-3,-1.360062361E-2,1.736448831E-2
9.459687500E-1,-1.007969529E-2,1.491407270E-2,-1.509692609E-2,2.349355229E-2
9.559187500E-1,-4.992334452E-3,1.643737287E-2,-1.030688703E-2,2.003353565E-2
9.658687500E-1,-1.340579255E-2,1.155825057E-2,-1.569568098E-2,2.365719407E-2
9.758187500E-1,-1.474252087E-2,1.084391268E-2,-1.090564191E-2,2.130411672E-2
9.857697500E-1,-8.763126167E-3,3.932010415E-3,-1.824038923E-2,2.061467645E-2
9.957197500E-1,-9.252113281E-3,-7.289330894E-3,-2.048572004E-2,2.363050297E-2
1.005669750E0,-1.381413834E-2,-7.968256585E-3,-1.000750959E-2,1.882747406E-2
1.015619750E0,-5.466479687E-3,-2.242183364E-2,-1.823980451E-2,2.941617739E-2
1.025569750E0,-9.908723622E-3,-1.318781932E-2,-1.135412335E-2,2.002542133E-2
1.035519750E0,-1.014489632E-2,-9.791573742E-3,-8.808830380E-3,1.662496106E-2
1.045469750E0,-2.440920631E-2,-2.043667652E-2,-8.210660219E-3,3.287677054E-2
1.055419750E0,-1.920723547E-2,-1.661720216E-2,-3.420621157E-3,2.562713311E-2
1.065369750E0,-1.453461581E-2,-8.170679882E-3,-1.524603009E-2,2.259328440E-2
1.075319750E0,-1.033736107E-2,2.964734766E-3,-1.195229352E-2,1.607818418E-2
1.085269750E0,-1.034770334E-2,1.639888175E-3,-1.210256696E-2,1.600738344E-2
1.095219750E0,-5.018121586E-3,8.295504232E-3,-8.808830380E-3,1.309932927E-2
1.105170750E0,-6.234959140E-3,1.118663260E-2,-1.075478375E-2,1.672366102E-2
1.115120375E0,-6.975107007E-3,8.740600683E-3,-1.030571759E-2,1.520717045E-2
1.125070375E0,-8.423074032E-3,1.119201387E-2,-1.659264386E-2,2.171463057E-2
1.135020375E0,-9.862265666E-3,5.533676986E-3,-1.329949200E-2,1.745744404E-2
1.144970375E0,-7.568019242E-3,6.405487703E-3,-8.809415102E-3,1.326314376E-2
1.154920375E0,-1.039092248E-2,7.770707491E-3,-7.462216616E-3,1.496796051E-2
1.164870375E0,-2.271238544E-2,2.845584042E-4,-1.270132184E-2,2.602416190E-2
1.174820375E0,-1.404217518E-2,-9.383917744E-3,-1.734050274E-2,2.420606600E-2
1.184770375E0,-1.439671288E-2,-2.034442755E-2,-9.556104541E-3,2.669232490E-2
1.194720375E0,-1.600133961E-2,-1.584129949E-2,-9.706377983E-3,2.451944967E-2
1.204670375E0,-4.684812021E-3,-2.334789556E-2,-7.761009336E-3,2.504605670E-2
1.214621375E0,-7.118701832E-3,-1.456594409E-2,-7.011396289E-3,1.766358743E-2
1.224571375E0,-1.039997653E-2,-5.737699131E-3,-1.329832256E-2,1.783048193E-2
1.234521375E0,-1.148585016E-2,-8.920215270E-3,-1.030513287E-2,1.782388167E-2
1.244471375E0,-6.990076792E-3,-1.057568993E-2,-6.264122128E-3,1.414021277E-2
1.254421375E0,-1.158428438E-2,-3.529055030E-3,-9.407000542E-3,1.533432533E-2
1.264371375E0,-1.072183378E-2,8.211336304E-3,-8.741587400E-4,1.353321532E-2
1.274321375E0,-1.096670877E-2,1.644569145E-2,-3.268593550E-3,2.003529816E-2
1.284271375E0,-8.915912085E-3,1.541035512E-2,-1.853742778E-2,2.570231044E-2
1.294221375E0,-1.492507277E-2,3.811123800E-3,5.114559531E-3,1.623087123E-2
1.304171375E0,-5.469544907E-3,7.176132454E-3,-1.419528544E-2,1.682019403E-2
1.314121375E0,-1.394632653E-2,6.448272876E-3,-1.539221048E-2,2.174857214E-2
1.324071375E0,-9.773488487E-3,5.635226676E-3,-1.284808695E-2,1.709825123E-2
1.334022375E0,-1.170060286E-2,-5.096515389E-3,-5.363066196E-3,1.384344810E-2
1.343972375E0,-5.805869442E-3,-2.898825682E-3,-2.542077005E-2,2.623598407E-2
1.353922375E0,-7.906088806E-3,-1.039565507E-2,-1.090096414E-2,1.701196355E-2
1.363872375E0,-1.168066751E-2,-2.508700367E-2,-7.009057403E-3,2.854684978E-2
1.373822375E0,-1.728465726E-2,-1.945290989E-2,-6.858783960E-3,2.691129869E-2
1.383772375E0,-8.760143174E-3,-1.279469457E-2,-7.906020284E-3,1.740544381E-2
1.393722375E0,-9.026598050E-3,-1.325741946E-3,-1.763520241E-2,1.985541307E-2
1.403672375E0,-3.720999020E-3,-3.583205729E-3,-1.449173927E-2,1.538491807E-2
1.413622375E0,-1.082342458E-3,-1.319684596E-3,-1.479111671E-2,1.488926346E-2
1.423572375E0,-6.584974383E-3,-6.778480676E-3,-1.104831398E-2,1.453873893E-2
1.433522375E0,-1.413176549E-2,1.465645717E-3,-1.434146583E-2,2.018743558E-2
1.443472375E0,-5.384979551E-3,8.503098660E-3,-1.374212623E-2,1.703369381E-2
1.453423375E0,-1.239435215E-2,1.131995826E-2,-2.257376075E-2,2.813069666E-2
1.463373375E0,-8.729212317E-3,4.078177102E-3,-2.107628882E-2,2.317413702E-2
1.473323375E0,-6.830392987E-3,-1.421613442E-3,-1.419060767E-2,1.581292506E-2
1.483273375E0,-4.286050186E-3,3.479175540E-3,-7.603719234E-3,9.396352209E-3
1.493223375E0,-5.957764573E-3,3.835234428E-3,-2.781228125E-2,2.870064407E-2
1.503173375E0,-1.195307467E-2,-5.734839477E-4,-1.059924781E-2,1.598589791E-2
1.513123375E0,-4.600539026E-3,-1.146355308E-2,-1.299426734E-2,1.792844088E-2
1.523073375E0,-7.083344450E-3,-1.495343633E-2,-1.254461646E-2,2.076406581E-2
1.533023375E0,-7.266604411E-3,-9.966131402E-3,-1.658679664E-2,2.067000575E-2
1.542973375E0,-8.242522976E-3,-1.475987066E-2,-1.059866309E-2,1.995306057E-2
1.552923375E0,-3.233144805E-3,-6.166866487E-3,-1.134652197E-2,1.331266421E-2
1.562873375E0,-6.209532889E-3,-1.138374772E-2,-8.950917721E-3,1.575648879E-2
1.572824375E0,-1.368074417E-2,-2.107520160E-2,-7.004964352E-3,2.608440931E-2
1.582774375E0,-7.895257752E-3,-1.035570671E-2,-6.106247306E-3,1.438269838E-2
1.592724375E0,-1.532359249E-2,-1.091872963E-2,-1.703410864E-2,2.538093774E-2
1.602674375E0,-1.489914859E-2,-2.202034006E-3,-1.853099585E-2,2.387951820E-2
1.612624375E0,-3.856681832E-3,1.386059173E-2,-9.849050045E-3,1.743541754E-2
1.622574375E0,-7.371749226E-3,8.317390177E-4,-1.598570287E-2,1.762319984E-2
1.632524375E0,-6.049401406E-3,-1.251199082E-3,-1.628566504E-2,1.741791153E-2
1.642474375E0,-5.544151724E-3,1.003913937E-2,-1.104539037E-2,1.592239260E-2
1.652424375E0,-1.337584385E-2,5.216575172E-3,-1.972792089E-2,2.439911305E-2
1.662374375E0,-1.722945132E-2,5.797126028E-3,-1.763227880E-2,2.532504529E-2
1.672324375E0,-8.013403486E-3,7.311239680E-3,-2.122422338E-2,2.383561451E-2
1.682274375E0,-9.915658054E-3,-2.003160152E-3,-2.661243260E-2,2.847023874E-2
1.692225375E0,-1.619892068E-2,-7.533301399E-3,-1.523608983E-2,2.347965277E-2
1.702175375E0,-1.557304476E-2,-1.678470205E-2,-1.643359959E-2,2.818349059E-2
1.712125375E0,-9.200095902E-3,-1.898741671E-2,-8.350993395E-3,2.269147083E-2
1.722075375E0,-1.064150765E-2,-2.031781359E-2,-2.182356298E-2,3.165948728E-2
1.732025375E0,-1.806124059E-2,-7.307434422E-3,-2.227262914E-2,2.959184040E-2
1.741975375E0,-3.064237931E-3,-7.004799899E-3,-1.284165502E-2,1.494539659E-2
1.751925375E0,-5.094089708E-3,-1.340250806E-2,-2.062488377E-2,2.511897297E-2
1.761875375E0,-8.416029965E-3,-2.866469566E-3,-2.167270482E-2,2.342546354E-2
1.771825375E0,-1.282539702E-2,3.545463779E-3,-4.758464098E-3,1.413167020E-2
1.781775375E0,-8.382933810E-3,8.174037463E-3,-1.359009862E-2,1.793820638E-2
1.791725375E0,-4.150952096E-3,1.198778337E-2,-8.650370836E-3,1.535468232E-2
1.801675375E0,-1.348631054E-2,1.083552101E-2,-1.987760961E-2,2.635163090E-2
1.811625375E0,-4.681865573E-3,-9.432289749E-5,-1.628566504E-2,1.694554950E-2
1.821576375E0,-8.894272819E-3,3.013371723E-3,-8.351578116E-3,1.256731296E-2
1.831526375E0,-1.450541171E-2,3.903660555E-3,-1.418885350E-2,2.066323059E-2
1.841476375E0,-8.206521487E-3,-9.500811808E-4,-2.002671361E-2,2.166376946E-2
1.851426375E0,-1.038031070E-2,-1.355568227E-2,-1.014725804E-2,1.986137503E-2
1.861376375E0,-1.329890728E-2,-1.465388987E-2,-1.703293920E-2,2.610973843E-2
1.871326375E0,-1.026341664E-2,-1.619744517E-2,-1.164356053E-2,2.243362327E-2
1.881276375E0,-4.209835385E-3,-1.298929264E-2,-1.747966647E-2,2.218069380E-2
1.891226375E0,-6.871830560E-3,-1.610829340E-2,-1.673063815E-2,2.422010372E-2
1.901176375E0,-1.198836353E-2,-3.669694271E-3,-1.523492038E-2,1.973044133E-2
1.911126375E0,-1.094200429E-2,-6.535565411E-3,-1.358717501E-2,1.862934239E-2
1.921076375E0,-4.972586394E-3,-1.175397697E-2,-2.661067843E-3,1.303701930E-2
1.931026375E0,-1.102506672E-2,8.703489136E-4,4.075509310E-3,1.178640656E-2
1.940977375E0,-1.058958620E-2,6.735215848E-4,-5.642563105E-4,1.062597537E-2
1.950927375E0,-2.853162582E-3,9.182732413E-4,-1.313752413E-2,1.347509936E-2
1.960877375E0,-3.324174075E-3,1.041517472E-2,-4.605851769E-3,1.186338351E-2
1.970827375E0,-6.465928727E-3,8.871043841E-3,-1.089219332E-2,1.546426618E-2
1.980777375E0,-8.727174927E-3,7.688348545E-3,-1.718028903E-2,2.074696645E-2
1.990727375E0,-5.356552033E-3,3.733835486E-3,-1.538402438E-2,1.671234224E-2
2.000677375E0,-5.940729990E-3,-1.012245763E-2,-9.546164274E-3,1.512896803E-2
2.010627375E0,-1.232936583E-2,-1.675103945E-3,-1.164122164E-2,1.703928627E-2
2.020577375E0,-1.134187618E-2,-1.434286368E-2,-1.613129854E-2,2.438390220E-2
2.030527375E0,-7.817046675E-3,-1.483462822E-2,-2.958106399E-3,1.702711974E-2
2.040477375E0,-3.996137925E-3,-1.493531453E-2,-1.313693941E-2,2.028822110E-2
2.050427375E0,-4.270614451E-3,-8.900334737E-3,-1.478293061E-2,1.777608348E-2
2.060378375E0,-9.184660167E-3,-2.102163106E-2,-1.760596633E-3,2.300796938E-2
2.070328375E0,-9.182682163E-3,-6.022051969E-3,-5.503399372E-3,1.228308456E-2
2.080278375E0,-1.595086169E-2,-6.891309097E-4,-3.154982150E-2,3.535952667E-2
2.090228375E0,-3.777986532E-3,-6.135862540E-3,-1.568281710E-2,1.725899022E-2
2.100178375E0,-9.705647081E-3,-2.984153917E-3,-1.029460788E-2,1.445972722E-2
2.110128375E0,-6.969278064E-3,4.286913564E-3,-1.792873263E-2,1.970755993E-2
2.120078125E0,-9.608003148E-3,4.360241303E-4,-1.343865573E-2,1.652577712E-2
2.130028125E0,-1.640469699E-2,-1.976404572E-3,-1.867834568E-2,2.493794008E-2
2.139978125E0,-8.269173489E-3,1.606106800E-3,-1.029519260E-2,1.330224793E-2
2.149928125E0,-6.574047399E-3,7.170358328E-3,-1.029460788E-2,1.416372441E-2
2.159878125E0,-1.104576495E-2,-4.719127868E-3,-1.628098726E-2,2.023239080E-2
2.169828125E0,-6.976093724E-3,2.603536723E-3,-1.792756319E-2,1.941241379E-2
2.179778125E0,-4.083046736E-4,-4.276278941E-4,6.332534552E-4,8.663649697E-4
2.189729125E0,-6.986454260E-3,-2.351434934E-3,-2.210832238E-3,7.695944942E-3
2.199679125E0,-4.556004256E-3,-1.982682106E-2,-1.074367404E-2,2.300622829E-2
2.209629125E0,-8.438866083E-3,-1.536577011E-2,-1.209145725E-2,2.129611913E-2
2.219579125E0,-9.962134282E-3,-8.038267856E-3,-1.313927829E-2,1.834389554E-2
2.229529125E0,-7.682716032E-3,-1.241817042E-2,-1.358892918E-2,1.994728248E-2
2.239479125E0,-1.645647682E-2,-7.087030937E-3,-9.247956276E-3,2.016349008E-2
2.249429125E0,-7.833345789E-3,6.243583784E-3,-6.852936745E-3,1.213698425E-2
2.259379125E0,-7.856017454E-3,-3.080377160E-3,-6.105077863E-3,1.041526329E-2
2.269329125E0,-1.595512376E-2,-1.165893231E-2,-1.643359959E-2,2.570135935E-2
2.279279125E0,-3.753793677E-3,1.247489755E-3,-9.547918439E-3,1.033488965E-2
2.289229125E0,-5.336571001E-3,4.103850033E-3,-1.403858006E-2,1.556927440E-2
2.299179125E0,-7.256627600E-3,1.179981823E-3,-1.478819311E-2,1.651489196E-2
2.309129125E0,-1.293216352E-2,4.042655267E-3,-9.998154044E-3,1.683885386E-2
2.319080125E0,-1.487001758E-3,2.969951578E-3,-1.209379613E-2,1.254159844E-2
2.329030125E0,-1.816204567E-3,-2.495778934E-3,-1.089687109E-2,1.132560423E-2
2.338980125E0,-4.526192592E-3,-2.784206551E-3,-1.359068334E-2,1.459263167E-2
2.348930125E0,-9.967766795E-3,-7.951304228E-3,-1.508698583E-2,1.975339857E-2
2.358880125E0,-1.076003711E-2,-6.782025550E-3,-1.359009862E-2,1.861357165E-2
2.368830125E0,-5.944612906E-3,-1.183687953E-2,-5.357218981E-3,1.428810466E-2
2.378780125E0,-1.231044918E-2,-1.710838655E-2,-1.343982518E-2,2.499745887E-2
2.388730125E0,-3.511394612E-3,-9.410655051E-3,-2.077515721E-2,2.307590687E-2
2.398680125E0,-5.521813533E-3,-1.297733783E-2,-6.854690909E-3,1.568083254E-2
2.408630125E0,-2.728150939E-3,-1.111345104E-2,-1.598511815E-2,1.965898278E-2
2.418580125E0,-8.883496583E-3,-8.243386354E-4,-1.044663548E-2,1.373783967E-2
2.428530125E0,-9.395516245E-3,-3.655697498E-4,-2.678024769E-4,9.406438482E-3
2.438481125E0,-4.795726393E-3,2.085615029E-3,-1.224173069E-2,1.331197776E-2
2.448431125E0,-1.299909587E-2,-2.568129092E-3,-8.948578835E-3,1.598902259E-2
2.458381125E0,-7.768514785E-3,-1.408977974E-3,-9.398229718E-3,1.227443533E-2
2.468331125E0,-9.736048034E-3,1.205956251E-2,-4.608190656E-3,1.616969698E-2
2.478281125E0,-8.648246652E-3,4.365467252E-3,-1.403799534E-2,1.705622431E-2
2.488231125E0,3.310711775E-4,3.757621776E-3,-1.029636204E-2,1.096560080E-2
2.498181125E0,-8.727147519E-3,1.523044361E-3,-6.255351305E-3,1.084491530E-2
2.508131125E0,-7.994500534E-3,-2.316502389E-3,-1.179324925E-2,1.443464409E-2
2.518081125E0,-1.427420001E-2,1.607308220E-3,-1.927710056E-2,2.404044159E-2
2.528031125E0,-1.178311712E-2,-9.584522923E-3,2.428348660E-3,1.538186614E-2
2.537981125E0,-8.528433549E-3,-2.488163849E-3,-6.852352023E-3,1.121961971E-2
2.547931125E0,-6.398251774E-3,-8.670817818E-3,-8.198965788E-3,1.354044857E-2
2.557881125E0,-6.448967233E-3,-1.891846068E-2,-1.538402438E-2,2.522232224E-2
2.567832125E0,-1.162114468E-2,-9.165716101E-3,-1.298900485E-2,1.969201875E-2
2.577782125E0,-7.455081185E-3,-1.990140047E-2,-3.558030725E-3,2.154770426E-2
2.587732125E0,-9.350972339E-3,-1.081496896E-2,-1.298842013E-2,1.931588193E-2
2.597682125E0,-1.554239713E-2,-5.357474796E-3,-8.648031950E-3,1.857571268E-2
2.607632125E0,-1.506689059E-2,-7.059809407E-3,-1.463558078E-2,2.215970049E-2
2.617582125E0,-1.669324794E-2,-2.749036462E-3,-2.092192233E-2,2.690629224E-2
2.627532125E0,-6.986618713E-3,3.095040880E-3,-1.672946870E-2,1.839204290E-2
2.637482125E0,-1.353736861E-2,-3.112514005E-3,-2.256791353E-2,2.650016629E-2
2.647432125E0,-1.877810466E-3,-6.451306120E-4,-1.792756319E-2,1.803718070E-2
2.657382125E0,-4.027045942E-3,4.791806932E-3,-1.643126070E-2,1.758308395E-2
2.667332125E0,-1.018342399E-2,7.237742920E-3,-7.000286579E-3,1.432100062E-2
2.677282125E0,-5.276486292E-3,-1.405460052E-2,-1.313752413E-2,1.994912638E-2
2.687232125E0,-1.196701662E-2,-1.247493410E-2,-1.089219332E-2,2.043216442E-2
2.697183125E0,-1.188879641E-2,-1.261456835E-2,-1.268728852E-2,2.148111041E-2
2.707133125E0,-9.950563191E-3,-8.594214725E-3,-1.463265717E-2,1.967203320E-2
2.717083125E0,-1.015814848E-2,-6.008694735E-3,-7.895495296E-3,1.419969151E-2
2.727033125E0,-4.912044872E-3,-8.007994811E-3,-1.223646820E-2,1.542683764E-2
2.736983125E0,-7.897729115E-3,-1.027811690E-2,-2.600666106E-2,2.905787727E-2
2.746933125E0,-4.922990128E-3,-8.111166190E-3,-1.552845061E-2,1.819779182E-2
2.756883125E0,-1.012544976E-2,-7.037896053E-3,-9.989967942E-3,1.586997710E-2
2.766833125E0,-3.990308982E-3,-1.531877311E-2,-1.178681731E-2,1.973617080E-2
2.776783125E0,-8.218115419E-3,-1.152320839E-2,-6.397438645E-3,1.553219153E-2
2.786733125E0,-1.204234064E-2,-4.503210294E-3,-9.391797781E-3,1.592176926E-2
2.796683125E0,-1.249710783E-2,8.916181605E-4,-4.452654719E-3,1.329657178E-2
2.806633125E0,-1.058208989E-2,8.547852701E-3,3.859162331E-5,1.360323129E-2
2.816583125E0,-3.523628083E-3,-7.735628765E-3,-8.044014573E-3,1.170307984E-2
2.826534125E0,2.738543451E-3,-3.909978289E-3,-1.597751677E-2,1.667538883E-2
2.836484125E0,3.866151581E-4,7.059882497E-3,-7.145882249E-3,1.005261385E-2
2.846434125E0,6.534994394E-4,-7.767843269E-4,-1.343339324E-2,1.347169289E-2
2.856384125E0,-1.573025721E-2,-6.272883816E-3,-1.702533782E-2,2.401358347E-2
2.866334125E0,-1.403396167E-2,-7.353622857E-3,-1.163654387E-2,1.965800098E-2
2.876284125E0,-8.401224632E-3,-3.726307196E-3,-5.349032879E-3,1.063381838E-2
2.886234125E0,-1.036687581E-2,-6.878225952E-3,-1.717385709E-2,2.120668465E-2
2.896184125E0,-6.681097127E-3,-7.065985529E-3,-1.522907317E-2,1.806903096E-2
2.906134125E0,-9.901848575E-3,-1.166047177E-2,-3.552183509E-3,1.570449664E-2
2.916084125E0,-1.184494686E-2,-4.836200089E-3,-1.298315763E-2,1.822783530E-2
2.926034125E0,-1.231840231E-2,-1.559397140E-2,-1.448062956E-2,2.458868870E-2
2.935984125E0,-1.760346299E-2,-7.790409867E-3,-9.242109060E-3,2.135389836E-2
2.945935125E0,-1.829262131E-2,-1.945569646E-4,-1.163654387E-2,2.168102857E-2
2.955885125E0,-1.289116449E-2,6.211469779E-3,-1.088810027E-2,1.798096788E-2
2.965835125E0,-7.372872988E-3,7.915028650E-4,-2.346253753E-2,2.460643006E-2
2.975785125E0,-9.150883360E-3,2.924589976E-3,-8.493080735E-3,1.282280442E-2
2.985735125E0,-9.010682660E-3,-3.232071293E-3,-6.547127366E-3,1.159756714E-2
2.995685125E0,-5.910790418E-3,4.957342520E-5,-1.103720427E-2,1.252037455E-2
3.005635125E0,-1.286897248E-2,1.632611132E-3,-1.118747771E-2,1.712995999E-2
3.015585125E0,-4.969461788E-3,-7.235678122E-3,-1.014024138E-2,1.341175170E-2
3.025535125E0,-9.051256855E-3,1.545163281E-3,-7.445844412E-3,1.182173334E-2
3.035485125E0,-9.460260454E-3,-6.246589618E-3,-1.687681854E-2,2.033084882E-2
3.045435125E0,-5.875898986E-3,3.657022258E-4,-2.056465745E-3,6.236102819E-3
3.055385125E0,-1.691689024E-2,-2.341033285E-3,-9.240354896E-3,1.941766646E-2
3.065335125E0,-1.244299368E-2,-6.435865816E-4,-1.133658171E-2,1.684518864E-2
3.075286125E0,-1.682796688E-3,-1.394413839E-2,-5.798099041E-3,1.519502394E-2
3.085236125E0,-4.517440042E-3,-1.267242380E-2,-1.163478971E-2,1.778667819E-2
3.095186125E0,-1.244260539E-2,-1.241471691E-2,-2.046642423E-2,2.697810493E-2
3.105136125E0,-1.106277213E-2,-1.439080171E-2,-5.347863436E-3,1.892299512E-2
3.115086625E0,-9.480182100E-3,2.764248359E-3,-1.582607388E-2,1.865420961E-2
3.125036625E0,-2.607268891E-3,-7.066858043E-3,-2.121486783E-2,2.251241770E-2
3.134986625E0,-9.444751628E-3,-4.656576365E-3,-4.300042391E-3,1.137441872E-2
3.144936625E0,-4.573902218E-3,7.372594331E-3,-7.742882967E-3,1.162875597E-2
3.154886625E0,1.528224628E-4,-3.305654847E-3,-8.341637850E-3,8.974053192E-3
3.164836625E0,-5.948171485E-3,-2.637985046E-3,-1.238323331E-2,1.398871603E-2
3.174786625E0,-6.746892007E-3,-5.456822645E-3,-1.268261075E-2,1.536704528E-2
3.184736625E0,-5.260561765E-3,1.909093070E-3,-1.447887540E-2,1.552275682E-2
3.194686625E0,-6.767498874E-3,-4.998647617E-3,-9.688836336E-3,1.283195498E-2
3.204637625E0,-1.095885158E-2,-1.829790208E-3,-9.988213778E-3,1.494017987E-2
3.214587625E0,-9.542747308E-3,-1.631285459E-2,-1.702416837E-2,2.543610740E-2
3.224537625E0,-1.071621954E-2,-1.561090092E-2,-2.046700895E-2,2.788254013E-2
3.234487625E0,-6.120691756E-3,-7.189128804E-3,-2.331167936E-2,2.515115972E-2
3.244437625E0,-4.173436468E-3,-7.397719086E-3,-9.540317059E-3,1.277346739E-2
3.254387625E0,-4.542816044E-3,-9.773940733E-3,-1.028934538E-2,1.490093029E-2
3.264337625E0,-1.056554410E-2,5.796966143E-6,-7.445844412E-3,1.292560848E-2
3.274287625E0,-1.217114840E-2,-7.534708385E-3,-1.822401702E-2,2.317376707E-2
3.284237625E0,-8.958898257E-3,-2.913548788E-3,-1.298549652E-2,1.604287207E-2
3.294187625E0,2.125988225E-3,-7.879767199E-3,-1.253759980E-2,1.496001223E-2
3.304137625E0,-1.218414475E-2,1.285615885E-2,-1.149036348E-2,2.111309207E-2
3.314087625E0,-4.441362284E-3,2.859571679E-3,-1.867600679E-2,1.940865989E-2
3.324037625E0,-7.334528044E-3,-4.291056865E-3,-1.403565645E-2,1.640756297E-2
3.333988625E0,-8.648228380E-3,-3.208938246E-3,-3.108379841E-3,9.734020958E-3
3.343938625E0,-4.944524327E-3,4.377106866E-3,-9.394721389E-3,1.148338693E-2
3.353888625E0,-7.958389409E-3,-4.145904304E-4,-2.359351516E-3,8.311100215E-3
3.363838625E0,-1.165385254E-2,-6.766516725E-3,-1.732939303E-2,2.195235501E-2
3.373788625E0,-1.149385354E-2,-1.199647197E-2,-2.017406344E-2,2.613459096E-2
3.383738625E0,-1.126826521E-2,-1.048360542E-2,-1.598219454E-2,2.218806720E-2
3.393688625E0,-5.260863262E-3,-8.057718985E-3,-3.258068562E-3,1.015965198E-2
3.403638625E0,-8.718536580E-3,-1.094038260E-2,-1.448472261E-2,2.013732953E-2
3.413588625E0,-1.000872471E-2,-1.429619102E-2,-1.867542207E-2,2.556026287E-2
3.423538625E0,-1.047356009E-2,-7.140482711E-3,-1.343573213E-2,1.847162288E-2
3.433488625E0,-8.664627993E-3,-6.159420423E-3,-1.463324189E-2,1.808717796E-2
3.443438625E0,-1.543535197E-2,-5.408587684E-3,-1.014199555E-2,1.924481709E-2
3.453388625E0,-8.546203603E-3,-4.356367523E-3,-1.568047822E-2,1.838186419E-2
3.463339625E0,-4.542633318E-3,-5.153137450E-3,-1.149036348E-2,1.338726245E-2
3.473289625E0,-9.347340669E-3,5.425288794E-3,-1.867425263E-2,2.157624266E-2
3.483239625E0,-3.677857532E-3,2.068292652E-3,-1.597985566E-2,1.652756054E-2
3.493189625E0,-1.245370139E-2,1.969314823E-3,-2.960152924E-2,3.217488792E-2
3.503139625E0,-1.024928282E-2,-2.114764312E-3,-9.393551946E-3,1.406267558E-2
3.513089625E0,-1.115730973E-2,6.828360166E-4,-1.523082733E-2,1.889258920E-2
3.523039625E0,-1.188855886E-2,-6.953554535E-3,-2.657559514E-3,1.402684480E-2
3.532989625E0,-1.192669824E-2,-3.461314123E-3,-1.089102387E-2,1.651790627E-2
3.542939625E0,1.810855279E-4,-3.739559362E-3,-2.166978121E-2,2.199082795E-2
3.552889625E0,-8.814974525E-3,-5.350357639E-3,-9.245032668E-3,1.384921412E-2
3.562839625E0,-2.970618526E-3,-6.597902211E-3,-1.298666596E-2,1.486641789E-2
3.572789625E0,-7.880342784E-3,-2.031514579E-3,-1.133950531E-2,1.395747952E-2
3.582740625E0,-1.295801918E-2,-1.899296243E-2,-7.597287297E-3,2.421490568E-2
3.592690625E0,-1.345424222E-2,-1.076770701E-2,-6.698570251E-3,1.848867197E-2
3.602640625E0,-1.179940710E-2,-4.574674233E-3,1.865261793E-4,1.265655736E-2
3.612590625E0,-1.019706444E-2,-2.814287734E-3,-1.627923310E-2,1.941426715E-2
3.622540625E0,-1.623219499E-2,-4.758870662E-3,-1.328604341E-2,2.150929923E-2
3.632490625E0,-1.625227195E-2,-5.143357068E-4,-8.346900344E-3,1.827762649E-2
3.642440625E0,-1.015759574E-2,-5.566005693E-3,-9.843202829E-3,1.520019120E-2
3.652390625E0,-1.495865772E-2,1.259618159E-4,-1.463324189E-2,2.092627715E-2
3.662340625E0,-1.917438600E-2,1.786735514E-3,-5.502229929E-3,2.002808120E-2
3.672290625E0,-1.122264780E-2,6.406721100E-4,-1.610907912E-3,1.135576103E-2
3.682240625E0,-6.707217735E-3,-2.616227008E-3,1.233762503E-3,7.304353731E-3
3.692190625E0,-1.861161433E-2,-1.382277212E-3,-6.699154973E-3,1.982880621E-2
3.702141625E0,1.100911936E-3,-1.321265628E-2,-2.421332002E-2,2.760563637E-2
3.712091625E0,-9.646786633E-3,-9.912122316E-3,-1.807549775E-2,2.276036643E-2
3.722041625E0,-1.378293340E-2,-8.002462797E-3,-1.163888276E-2,1.973505145E-2
3.731991625E0,-9.328766624E-3,-7.639021799E-3,-4.902890325E-3,1.301610058E-2
3.741941625E0,-1.155727755E-2,-1.089495247E-2,-1.792697847E-2,2.395093340E-2
3.751891625E0,-7.879260136E-3,-7.766472828E-3,-9.245032668E-3,1.441774842E-2
3.761841625E0,-7.719060131E-3,-1.387210800E-3,-1.732880831E-2,1.902093164E-2
3.771791625E0,-1.160992533E-2,-3.455425794E-3,-2.630954683E-2,2.896416041E-2
3.781741625E0,-1.866056649E-2,-7.362658633E-3,-1.538110077E-2,2.527852339E-2
3.791691625E0,-1.424070643E-2,-9.272267902E-4,-6.997947693E-3,1.589429901E-2
3.801641625E0,-6.141604688E-3,-4.202060415E-3,-1.178740203E-2,1.393985174E-2
3.811591625E0,-3.464886406E-3,6.750930240E-3,-8.194288015E-3,1.116811770E-2
3.821542625E0,-6.033230200E-3,-5.140077146E-3,-3.404248953E-3,8.626075043E-3
3.831492625E0,-1.254240091E-2,-1.412824346E-3,-1.657744110E-2,2.083553327E-2
3.841442625E0,-1.017583631E-2,2.236665054E-3,-1.388421357E-2,1.735862038E-2
3.851392625E0,-7.262634700E-3,4.135219431E-3,-3.854484558E-3,9.203420763E-3
3.861342625E0,-4.844998321E-3,-1.352671115E-4,-1.717678070E-2,1.784752367E-2
3.871292625E0,-4.655685578E-3,1.041238359E-3,-1.238732636E-2,1.327423971E-2
3.881242625E0,-7.851129547E-3,-1.144340303E-2,-8.943901062E-3,1.651015064E-2
3.891192625E0,-6.086138366E-3,-9.381313906E-3,-1.178740203E-2,1.624786071E-2
3.901142625E0,-1.345959151E-2,-8.974480173E-3,-1.298432708E-2,2.074354472E-2
3.911092625E0,-5.552264736E-3,-8.541343105E-3,-1.433094084E-2,1.758289087E-2
3.921042625E0,-9.753676476E-3,-1.703118046E-2,-1.986883879E-2,2.792787259E-2
3.930993625E0,-7.704405547E-3,-1.540081229E-2,-6.996193528E-3,1.858735075E-2
3.940943625E0,-6.419055071E-4,-9.657594846E-3,-1.612662077E-2,1.880821837E-2
3.950893625E0,-1.516489084E-3,-8.557729013E-3,-4.901136160E-3,9.977755292E-3
3.960843625E0,-7.134046205E-3,-1.691809623E-3,-1.927066863E-2,2.061832933E-2
3.970793625E0,-1.270231769E-2,3.631851822E-3,-7.594948411E-3,1.523884719E-2
3.980743625E0,-1.154691245E-2,4.734855965E-3,-1.418183684E-2,1.889112343E-2
3.990693625E0,-2.283461052E-3,1.306860007E-2,-7.895495296E-3,1.543830782E-2
4.000643625E0,-2.131876554E-3,2.998150690E-3,-1.523082733E-2,1.566881956E-2
4.010593625E0,-2.922342452E-3,3.037852370E-3,-1.148919404E-2,1.223806406E-2
4.020543625E0,-3.559410302E-3,-6.593621867E-3,-9.842618108E-3,1.237022159E-2
4.030493625E0,-1.447692024E-2,-5.652814005E-3,-1.837429047E-2,2.406553710E-2
4.040444625E0,-9.783287141E-3,-1.800570575E-2,-1.702650726E-2,2.664244914E-2
4.050394625E0,-7.029705383E-3,-1.833354725E-2,-1.507996917E-2,2.475764897E-2
4.060344625E0,-6.983676832E-3,-4.366728058E-4,-7.445844412E-3,1.021777981E-2
4.070294625E0,-1.542632533E-3,-1.036021546E-2,-1.523024261E-2,1.848442776E-2
4.080244625E0,-8.292466421E-3,-8.383806325E-3,-1.882277191E-2,2.221148239E-2
4.090194625E0,-7.545215101E-3,-8.381718686E-3,-2.091782928E-2,2.376423911E-2
4.100144625E0,-8.019620720E-3,-4.096330879E-3,-2.301405609E-2,2.471317504E-2
4.110094625E0,-2.661634292E-3,-5.949802310E-3,-6.248919368E-3,9.029586807E-3
4.120045375E0,-6.748664444E-3,-1.222650052E-2,-4.752032161E-3,1.475173198E-2
4.129995375E0,-1.308877297E-2,1.604909948E-3,-5.051994324E-3,1.412141496E-2
4.139946375E0,-1.228421437E-2,2.047539605E-3,-1.103954315E-2,1.664229113E-2
4.149896375E0,-1.054218721E-2,-2.883673171E-3,-2.106810272E-2,2.373432608E-2
4.159846375E0,-9.761510831E-3,1.558337789E-3,-1.283463836E-2,1.620010655E-2
4.169796375E0,-3.662750702E-3,-5.363258058E-3,-8.643354177E-3,1.081146850E-2
4.179746375E0,-9.864746165E-3,-5.540067810E-3,-8.045184016E-3,1.388274303E-2
4.189696375E0,-8.214250775E-3,-2.386458842E-3,-1.073958099E-2,1.372981068E-2
4.199646375E0,-1.047962200E-2,-4.912255006E-4,-1.822460175E-2,2.102854937E-2
4.209596375E0,-1.011183671E-2,-1.192898231E-2,-1.433211029E-2,2.121224283E-2
4.219546375E0,-4.067903361E-3,4.366545333E-4,-9.841448665E-3,1.065798371E-2
4.229496375E0,-3.413435477E-3,-2.520515397E-3,-1.567930877E-2,1.624331442E-2
4.239447375E0,-9.651715653E-3,-1.065076726E-2,-1.373335540E-2,1.987962547E-2
4.249397375E0,-9.254634893E-3,-1.708797611E-2,-1.133892059E-2,2.249929587E-2
4.259347375E0,4.560828209E-5,-9.092680723E-3,-6.999117136E-3,1.147460516E-2
4.269297375E0,-7.940281313E-3,6.072342591E-3,-1.161257029E-3,1.006329617E-2
4.279247375E0,-9.319342556E-3,-5.534430728E-3,-1.657802582E-2,1.980684248E-2
4.289197375E0,-8.191611087E-3,-1.598918379E-2,-1.373452485E-2,2.261401475E-2
4.299147375E0,-1.458452728E-2,6.143993824E-3,-1.912390351E-2,2.482298897E-2
4.309097375E0,-5.116953235E-3,-3.153449083E-3,-1.852456391E-2,1.947528997E-2
4.319047375E0,-8.129091561E-3,-8.148309714E-3,-4.004758000E-3,1.218667992E-2
4.328997375E0,-1.013745482E-2,-7.456172970E-3,-9.243863225E-3,1.561446486E-2
4.338948375E0,-1.224648155E-2,6.932650739E-4,-1.208853364E-2,1.722177611E-2
4.348898375E0,-9.513593456E-3,-5.220279931E-3,-1.433386445E-2,1.797830507E-2
4.358848375E0,-5.880809734E-3,-3.355251113E-4,-4.604097605E-3,7.476243373E-3
4.368798375E0,1.227166113E-3,-4.438429540E-3,-1.238849580E-2,1.321667211E-2
4.378748375E0,-1.397800199E-2,-9.410577393E-3,-9.244447947E-3,1.921986796E-2
4.388698375E0,-1.427209410E-2,-1.432648234E-2,-1.597985566E-2,2.577395106E-2
4.398648375E0,-4.617125932E-3,-7.242242536E-3,-1.822401702E-2,2.014653135E-2
4.408598375E0,-7.045264458E-3,-8.917899225E-3,-1.582841277E-2,1.948597775E-2
4.418548375E0,-3.016395830E-3,-1.023623622E-2,-8.494834900E-3,1.363969925E-2
4.428498375E0,-6.629810650E-3,-2.085263282E-3,-2.241530120E-2,2.346803017E-2
4.438449375E0,-3.904478252E-4,-4.774881983E-3,-1.523082733E-2,1.596652901E-2
4.448399375E0,-3.567984696E-3,-5.485848589E-3,-1.972148895E-2,2.077888775E-2
4.458349375E0,-1.725353454E-3,2.013319689E-3,-9.392967224E-3,9.760027356E-3
4.468299375E0,-6.909229900E-3,-1.180648771E-3,-1.328487396E-2,1.502062800E-2
4.478249375E0,-2.432807162E-4,3.138744249E-3,-7.121908665E-4,3.227710767E-3
4.488199375E0,-4.391935039E-3,-5.903266696E-3,-1.343690157E-2,1.531952920E-2
4.498149375E0,-4.524995741E-3,8.451259439E-3,-1.089277804E-2,1.451040957E-2
4.508099375E0,-7.163318829E-3,-1.017680475E-3,-1.478410006E-2,1.645959977E-2
4.518049375E0,-8.945294344E-3,-1.329617097E-2,-1.493320405E-2,2.190449809E-2
4.528000375E0,-3.040067917E-3,-9.448406138E-3,-1.328604341E-2,1.658412919E-2
4.537950375E0,-5.317270621E-3,7.800048636E-4,-6.100984812E-3,8.130423735E-3
4.547900375E0,-8.965837257E-4,4.525128216E-3,-7.746976018E-3,9.016445263E-3
4.557850375E0,-4.084106544E-3,-6.640573181E-3,-1.133892059E-2,1.376038730E-2
4.567800375E0,-5.385308457E-3,5.369205773E-4,-5.202267766E-3,7.506891553E-3
4.577750375E0,-1.060919265E-2,-1.064859740E-2,-1.044137299E-2,1.830218198E-2
4.587700375E0,-3.693800331E-3,-2.276622551E-4,-1.298725069E-2,1.350424642E-2
4.597650375E0,-1.045241875E-2,-8.806843241E-3,-1.747908175E-2,2.218855210E-2
4.607600375E0,-1.121604227E-2,-7.437681151E-3,-5.204606652E-3,1.442936712E-2
4.617551375E0,-4.465710456E-3,3.730692607E-3,-9.395890832E-3,1.105185060E-2
4.627501375E0,-1.506107078E-2,1.663345560E-3,-1.508406222E-2,2.138063387E-2
4.637451375E0,-1.175995210E-2,-1.089802226E-2,-1.717970431E-2,2.349905536E-2
4.647401375E0,-7.483600066E-3,-1.063294239E-2,-2.047227144E-2,2.425237374E-2
4.657351375E0,-9.361634371E-3,-1.709145703E-3,-1.268845797E-2,1.586059087E-2
4.667301375E0,-9.022249184E-3,-5.612934167E-3,-8.647447228E-3,1.369979393E-2
4.677251375E0,-6.562535693E-3,-6.517215203E-3,-1.313752413E-2,1.606659606E-2
4.687201375E0,-7.142584054E-3,-8.646428534E-3,-3.556276560E-3,1.176538722E-2
4.697152375E0,-1.498352209E-2,-3.260389175E-3,-6.849428415E-3,1.679436636E-2
4.707102375E0,-7.577859010E-3,-3.330135494E-3,-7.447598577E-3,1.113465195E-2
4.717052375E0,-1.137426427E-2,-4.813254336E-3,-1.208794892E-2,1.728177694E-2
4.727002375E0,-9.603275126E-3,-1.374187041E-2,-1.672829926E-2,2.368328296E-2
4.736952375E0,-1.096499572E-2,-1.086393482E-2,-7.745806575E-3,1.727002404E-2
4.746902375E0,-5.923494408E-3,8.293498820E-4,-1.567872405E-2,1.678088183E-2
4.756852375E0,-5.466890819E-3,-9.772424111E-3,-3.553352952E-3,1.174791409E-2
4.766802375E0,-1.096395875E-2,-2.595926207E-3,-1.822343230E-2,2.142523534E-2
4.776752375E0,-1.013587425E-3,5.262028137E-3,-7.894910574E-3,9.541798182E-3
4.786703375E0,-8.911078996E-3,-6.570730931E-3,-5.948957205E-3,1.256868830E-2
4.796653375E0,-4.399262331E-3,-1.739152426E-2,-6.696816087E-3,1.914852399E-2
4.806603375E0,-4.042326361E-3,-8.466932718E-3,-1.118806243E-2,1.460144147E-2
4.816553375E0,-1.343050618E-2,7.808591053E-4,-3.703041673E-3,1.395352123E-2
4.826503375E0,-1.001129657E-2,-3.459473164E-3,1.536063552E-3,1.070296711E-2
4.836453375E0,-7.846625363E-3,2.643265813E-3,-4.901136160E-3,9.621721229E-3
4.846403375E0,-3.221701621E-3,7.354125353E-3,-2.031965911E-2,2.184836533E-2
4.856353375E0,-5.697344206E-3,-1.620949135E-2,-1.582899749E-2,2.336160316E-2
4.866304375E0,-6.659334521E-3,-9.428680921E-4,-1.238498747E-2,1.409339034E-2
4.876254375E0,-6.483593713E-3,-1.626110673E-3,-1.597751677E-2,1.731941874E-2
4.886204375E0,-4.523296393E-3,-3.691095994E-3,-1.223471403E-2,1.355627631E-2
4.896154375E0,-1.601733265E-2,1.544313608E-3,-4.002419114E-3,1.658189400E-2
4.906104375E0,-4.968319754E-3,-7.624869710E-3,-1.627689421E-2,1.864832766E-2
4.916054375E0,-8.953183517E-3,-9.550033486E-3,-9.242109060E-3,1.602433195E-2
4.926004375E0,-1.311587116E-2,-4.653575099E-3,-8.044599295E-3,1.607474464E-2
4.935954375E0,-6.471588649E-3,-8.478339356E-3,-2.954598069E-3,1.106767128E-2
4.945905375E0,-1.636774532E-2,-4.659901969E-3,-1.606230140E-3,1.709379269E-2
4.955855375E0,-3.839185867E-3,-4.143204535E-3,-1.178506315E-2,1.306878745E-2
4.965805375E0,-2.234720398E-2,-6.601227815E-3,-2.504362464E-3,2.343598869E-2
4.975755375E0,-4.735573162E-3,-1.200287193E-3,-1.163478971E-2,1.261882221E-2
4.985705375E0,-1.407965218E-2,-5.302853580E-3,-4.449731112E-3,1.568939032E-2
4.995655375E0,-1.345378540E-2,-5.615633936E-3,-1.118630826E-2,1.837588580E-2
5.005605375E0,5.796171287E-3,-1.370349806E-4,-8.191949129E-3,1.003605554E-2
5.015555375E0,-1.039678340E-2,-2.876103767E-3,-2.884840786E-2,3.079928107E-2
5.025506375E0,-5.274704718E-3,2.559892740E-4,-5.198174715E-3,7.410064827E-3
5.035456375E0,-6.432046853E-3,-5.822958844E-3,-1.807140470E-2,2.004629003E-2
5.045406375E0,-3.698341059E-3,3.807921535E-3,-1.702358365E-2,1.783200475E-2
5.055356375E0,-6.036290852E-3,-1.064202842E-2,-2.031615078E-2,2.371572387E-2
5.065306375E0,-7.636061646E-3,-1.455730118E-2,-1.327961147E-2,2.113226291E-2
5.075256375E0,-9.405913325E-3,-7.400560468E-3,-3.699533343E-3,1.252701272E-2
5.085206375E0,-1.447467271E-2,-3.475900185E-3,-9.687082171E-3,1.776056286E-2
5.095156375E0,-1.462822151E-2,-7.499337299E-3,-2.196155727E-2,2.743236997E-2
5.105107375E0,-6.396077340E-3,-4.468140705E-3,-2.151190639E-2,2.288309863E-2
5.115057375E0,-1.183819972E-2,-1.455375174E-2,-1.627280116E-2,2.483462743E-2
5.125010500E0,-8.094186424E-3,-5.017632795E-3,-8.189610243E-3,1.256034270E-2
5.134960500E0,-7.969622458E-3,-2.414201139E-3,-1.657159388E-2,1.854618486E-2
5.144910500E0,-1.190035379E-2,-5.581601313E-3,-3.698363900E-3,1.365469111E-2
5.154860500E0,-7.465048861E-3,-1.551234336E-3,-3.400155902E-3,8.348313759E-3
5.164810500E0,-1.061566570E-2,-3.884022133E-3,-1.253175259E-2,1.687669426E-2
5.174760500E0,-3.416094133E-3,-1.150144121E-2,-1.477708340E-2,1.903457493E-2
5.184711500E0,-7.799308598E-3,-1.312664283E-2,-1.454787254E-3,1.533800419E-2
5.194661500E0,-6.135670678E-3,-2.081805202E-3,4.911661148E-4,6.497815919E-3
5.204611500E0,-2.829650380E-3,-3.247347143E-3,-5.496382713E-3,6.983008497E-3
5.214561500E0,-1.144661443E-2,-6.683637011E-3,-9.688251615E-3,1.641822782E-2
5.224511500E0,-8.310414632E-3,-1.183209669E-2,2.586223483E-3,1.468843270E-2
5.234461500E0,-1.051369117E-2,-4.585564672E-3,-4.598250389E-3,1.235754879E-2
5.244411500E0,-1.351263215E-2,-1.132805299E-2,-1.567463100E-2,2.359258505E-2
5.254362500E0,-7.716328385E-3,-1.221039327E-2,-1.178389370E-2,1.864123328E-2
5.264312500E0,-1.577482395E-2,-1.326209723E-2,-6.994439363E-3,2.176351249E-2
5.274262500E0,-6.850853674E-3,-4.607793228E-3,-1.343046963E-2,1.576526146E-2
5.284212500E0,-5.670246016E-3,-1.145286821E-3,-9.837940335E-3,1.141264395E-2
5.294162500E0,-5.514545627E-3,-3.214511373E-3,-1.903853416E-3,6.660927463E-3
5.304112500E0,-1.245826953E-2,1.424240121E-3,-1.881809413E-2,2.261321752E-2
5.314062500E0,-5.732834064E-3,-4.714148599E-3,-8.189610243E-3,1.105252457E-2
5.324013500E0,-5.938793099E-3,9.047241462E-4,-7.591440082E-3,9.680792931E-3
5.333963500E0,-9.219976435E-3,-8.966760021E-3,-5.566549301E-4,1.287325194E-2
5.343913500E0,1.835710513E-3,-9.190269839E-4,3.403079510E-4,2.080926041E-3
5.353863500E0,-1.118633111E-2,-1.305646710E-3,2.286261320E-3,1.149198450E-2
5.363813500E0,-1.062200627E-2,-6.485731602E-3,4.034578800E-5,1.244561607E-2
5.373763500E0,2.657468151E-4,-1.119490093E-2,-1.313167691E-2,1.725796531E-2
5.383713500E0,-8.495113556E-3,-2.873714631E-3,-8.041675687E-3,1.204548621E-2
5.393663500E0,-5.899155373E-3,-4.115297785E-3,-7.143543363E-3,1.013735280E-2
5.403614500E0,-8.806422972E-3,-5.060427105E-3,-9.539147615E-3,1.393399962E-2
5.413564500E0,-1.648403639E-2,4.250496374E-3,-5.197589993E-3,1.779902011E-2
5.423514500E0,-1.017130929E-2,-9.006886538E-3,-1.926891446E-2,2.357690824E-2
5.433464500E0,-1.184766490E-2,-6.078728847E-3,-1.837195158E-2,2.269023386E-2
5.443414500E0,-1.402488478E-2,-6.088673682E-3,6.925442219E-3,1.678484705E-2
5.453364500E0,-1.249015513E-2,-6.674715439E-3,-6.546542645E-3,1.560169933E-2
5.463314500E0,7.465615310E-4,-1.301149379E-2,-1.283346891E-2,1.829082418E-2
5.473265500E0,-1.163642053E-2,-7.414337969E-3,-1.537934661E-2,2.066163092E-2
5.483215500E0,-3.479947555E-3,2.683154787E-3,-7.745221853E-3,8.904932125E-3
5.493165500E0,-7.558302814E-3,1.648019459E-3,-1.672654510E-2,1.842881495E-2
5.503115500E0,-1.058999277E-2,-5.151858372E-3,-4.302965999E-3,1.253814611E-2
5.513065500E0,-1.539869724E-2,-8.128164229E-3,-3.704211116E-3,1.780191311E-2
5.523015500E0,-2.109478521E-2,2.960669124E-3,-1.043961883E-2,2.372216613E-2
5.532965500E0,-8.002476501E-3,-6.050890619E-3,-1.163771331E-2,1.536519699E-2
5.542916500E0,-5.877360790E-3,-1.119284070E-2,-2.956352234E-3,1.298318418E-2
5.552866500E0,-1.148220022E-2,-8.769124132E-3,-1.119040132E-2,1.827466939E-2
5.562816500E0,-9.949055705E-3,-3.195421128E-3,-5.951296091E-3,1.202548755E-2
5.572766500E0,-8.491600659E-3,-1.307660345E-2,2.581545711E-3,1.580408864E-2
5.582716500E0,-4.742640071E-3,-1.053685163E-2,-7.896080017E-3,1.399521192E-2
5.592666500E0,-9.850571235E-3,-4.513643919E-3,-8.045184016E-3,1.349561858E-2
5.602616500E0,-1.137945824E-2,-6.127224192E-3,-1.148860931E-2,1.729228412E-2
5.612567500E0,-1.049302949E-2,-6.340428293E-3,-1.029051483E-2,1.600622985E-2
5.622517500E0,-1.013248012E-2,-7.790510366E-3,-3.555107117E-3,1.326642347E-2
5.632467500E0,-1.192727840E-2,-1.183713078E-2,-8.944485784E-3,1.903631952E-2
5.642417500E0,-1.347826605E-2,-6.501633287E-3,-1.553078949E-2,2.156711185E-2
5.652367500E0,-6.331863035E-3,2.988740327E-3,-1.747732759E-2,1.882769337E-2
5.662317500E0,-1.385511910E-2,-3.643802069E-3,-1.493261933E-2,2.069359174E-2
5.672267500E0,-1.516973763E-2,-5.641096733E-3,-5.630868673E-4,1.619444284E-2
5.682218500E0,-1.321530580E-2,1.080414704E-3,-1.148919404E-2,1.754460552E-2
5.692168500E0,-6.596330772E-3,-6.649353141E-3,-8.495419621E-3,1.264506352E-2
5.702118500E0,-9.644858879E-3,-6.836623927E-3,-1.253584564E-2,1.723108108E-2
5.712068500E0,-1.100516335E-2,-5.665892581E-3,-1.238615692E-2,1.751093493E-2
5.722018500E0,-5.074912668E-3,-6.660746075E-3,6.361770630E-4,8.397916297E-3
5.731968500E0,-1.368074417E-2,-1.326708107E-2,-1.672888398E-2,2.535811035E-2
5.741918500E0,-1.667185992E-2,-4.638212454E-3,-1.268728852E-2,2.145766106E-2
5.751869500E0,-6.912952932E-3,-8.994287616E-3,-5.653088093E-3,1.267452299E-2
5.761819500E0,-1.610361106E-2,-1.355608427E-3,-1.462388635E-3,1.622659989E-2
5.771769500E0,-1.169093668E-2,-1.857829434E-3,-1.882569551E-2,2.223817309E-2
5.781719500E0,-1.401039465E-2,-1.392852450E-2,-1.151901484E-4,1.975621983E-2
5.791669500E0,-6.563198073E-3,-1.124818825E-2,-1.074308932E-2,1.688227698E-2
5.801619500E0,-7.064647065E-3,5.690172231E-3,-4.755540490E-3,1.024219037E-2
5.811569500E0,-1.407491502E-2,-1.578213754E-3,-8.349823952E-3,1.644121503E-2
5.821520500E0,-1.612366062E-2,-3.598824190E-4,-1.912741184E-2,2.501918925E-2
5.831470500E0,-7.869301597E-3,-5.256532668E-3,-1.613831520E-3,9.600077890E-3
5.841420500E0,-8.129859008E-3,-2.723244759E-3,-6.554728746E-3,1.079236482E-2
5.851370500E0,-1.425876884E-2,-1.146035995E-3,-1.179441869E-2,1.854007011E-2
5.861320500E0,-8.027601256E-3,-1.270118480E-2,-1.673473120E-2,2.249030247E-2
5.871270500E0,-4.659257862E-3,-2.447151113E-4,-1.179441869E-2,1.268372507E-2
5.881221500E0,-1.345216828E-2,-6.152600194E-3,-1.508757055E-2,2.112936596E-2
5.891171500E0,-8.846618012E-3,3.378000436E-4,-1.613480687E-2,1.840404173E-2
5.901121500E0,-1.140326737E-2,-1.431969409E-2,-7.003210187E-3,1.959931373E-2
5.911071500E0,-5.001868154E-3,-1.206017921E-2,-4.907568097E-3,1.394814799E-2
5.921021500E0,-8.317472404E-3,-5.711025777E-3,-9.249125719E-3,1.368731125E-2
5.930971500E0,-8.665925344E-3,-9.383022389E-3,-4.758464098E-3,1.363019999E-2
5.940921500E0,-9.990886138E-3,-4.515370675E-3,-9.547333717E-3,1.453815529E-2
5.950872500E0,-1.224255295E-2,-8.298957744E-3,-7.152314186E-3,1.642888921E-2
5.960822500E0,-2.585547399E-3,-1.006147299E-2,-1.418768406E-2,1.758433033E-2
5.970772500E0,-6.516507142E-3,-3.339988966E-3,-9.249125719E-3,1.179689443E-2
5.980722500E0,-6.246338370E-3,-1.472162621E-2,-9.998738766E-3,1.886048245E-2
5.990672500E0,-4.013213622E-3,3.380101779E-4,1.795095205E-4,4.031421353E-3
6.000622500E0,-3.802462611E-3,-3.495287360E-3,-1.059749365E-2,1.178908933E-2
6.010572500E0,-1.193927432E-2,-5.272649056E-3,-7.753992677E-3,1.518128789E-2
6.020523500E0,-1.181911404E-2,-3.227708722E-3,-6.255936027E-3,1.375668186E-2
6.030473500E0,-1.116429898E-2,-7.189649572E-3,-9.249125719E-3,1.618267466E-2
6.040423500E0,-1.804332892E-2,-6.533258501E-4,-9.398814440E-3,2.035500592E-2
6.050373500E0,-1.221757895E-2,-7.710832916E-4,-9.248540998E-3,1.534272842E-2
6.060323500E0,-1.238350740E-2,-5.873505282E-3,1.828424335E-3,1.382723600E-2
6.070273500E0,-6.966669657E-3,-7.777016088E-3,3.924066424E-3,1.115413657E-2
6.080224500E0,-1.075481116E-2,-4.619551613E-3,-5.665951967E-4,1.171867101E-2
6.090174500E0,-1.222070355E-2,3.044375670E-3,-8.949163556E-3,1.544996268E-2
6.100124500E0,-4.950590814E-3,-3.097763490E-3,-1.074484348E-2,1.222931517E-2
6.110074500E0,-1.212649943E-2,-8.368781721E-3,-9.097682834E-3,1.731636015E-2
6.120020417E0,-1.064519871E-2,-7.567174137E-3,-7.451106906E-3,1.503666765E-2
6.129970417E0,-1.170907218E-2,-6.843960355E-3,-1.313810885E-2,1.888258639E-2
6.139920417E0,-1.813642756E-2,-8.202401027E-3,-1.134359837E-2,2.291040399E-2
6.149871417E0,-1.336096086E-2,-1.019915665E-2,-2.661067843E-3,1.701820653E-2
6.159821417E0,-8.075616946E-3,-1.263991694E-2,-8.948578835E-3,1.746597127E-2
6.169771417E0,-7.019454483E-3,1.699438412E-3,-9.546748996E-3,1.197084995E-2
6.179721417E0,-1.121882883E-2,-2.732161763E-3,-1.658270359E-2,2.020675349E-2
6.189671417E0,-1.389460151E-2,1.345499139E-3,1.829009056E-3,1.407890597E-2
6.199621417E0,-9.161440325E-3,-2.785330312E-4,-7.750484347E-3,1.200331525E-2
6.209572417E0,-2.705739657E-3,-3.006926081E-3,-2.092309177E-2,2.131052324E-2
6.219522417E0,-1.565405611E-2,-6.680612904E-3,-1.643184543E-2,2.365767541E-2
6.229472417E0,-1.369408770E-2,-3.454297464E-3,-1.493378878E-2,2.055427586E-2
6.239422417E0,-9.680883209E-3,-5.358872646E-3,1.831932664E-3,1.121574755E-2
6.249372417E0,-1.012643647E-2,-1.319063786E-2,-6.850597858E-3,1.798522543E-2
6.259322417E0,7.478862908E-4,-1.371916220E-2,-1.328662813E-2,1.911306444E-2
6.269272417E0,-5.441542226E-3,1.030494100E-3,-7.299079299E-3,9.162360968E-3
6.279223417E0,-3.534952495E-3,-2.700970522E-3,-1.508289278E-2,1.572529127E-2
6.289173417E0,-1.298867594E-2,-2.071609120E-3,-9.394721389E-3,1.616347912E-2
6.299123417E0,-1.045732949E-2,-1.143698480E-2,-4.604682326E-3,1.616673933E-2
6.309073417E0,-1.008802758E-2,-1.316203675E-3,-1.852573335E-2,2.113536110E-2
6.319023417E0,-1.382141082E-2,-1.490615155E-3,-4.754955769E-3,1.469227467E-2
6.328973417E0,-2.829590994E-3,3.693832308E-3,-3.107795119E-3,5.595477890E-3
6.338924417E0,-3.086493895E-3,3.359604548E-3,1.232593060E-3,4.725745754E-3
6.348874417E0,-6.062635300E-3,6.376151126E-3,1.831347942E-3,8.986917449E-3
6.358824417E0,-1.026965214E-2,-4.080397217E-4,-3.707134724E-3,1.092589124E-2
6.368774417E0,-1.816406936E-2,2.179417158E-3,-1.910285354E-3,1.839381594E-2
6.378724417E0,-4.978662017E-3,-8.517812630E-3,-1.852573335E-2,2.098911632E-2
6.388674417E0,-9.664935842E-3,-1.426585402E-2,-9.993476272E-3,1.991971746E-2
6.398625417E0,-1.452631094E-3,-4.058392500E-3,-5.951296091E-3,7.348374782E-3
6.408575417E0,-1.432028338E-2,-1.063196481E-2,-1.508289278E-2,2.335814304E-2
6.418525417E0,-7.379638399E-3,-3.453118885E-3,-8.618795872E-4,8.193041520E-3
6.428475417E0,-5.326100830E-3,-1.303179916E-2,-4.155031443E-3,1.467853622E-2
6.438425417E0,-1.039168079E-2,-1.023390647E-2,-3.705380559E-3,1.504824629E-2
6.448375417E0,-4.734298652E-3,-9.194431412E-3,-4.602928162E-3,1.131981009E-2
6.458326417E0,-6.917662681E-3,-8.404550236E-3,-1.609153748E-3,1.100363110E-2
6.468276417E0,-4.250628850E-3,-2.950856765E-3,1.084658504E-3,5.286954259E-3
6.478226417E0,-1.091045216E-2,1.095114970E-3,-4.303550720E-3,1.177954974E-2
6.488176417E0,-1.481579836E-2,-6.455764621E-3,-1.493203461E-2,2.200341872E-2
6.498126417E0,-9.241944607E-3,-9.948164918E-3,-7.297325134E-3,1.541526774E-2
6.508076417E0,-6.785830809E-3,-4.461201704E-3,-9.392967224E-3,1.241682945E-2
6.518026417E0,-1.061032555E-2,-9.250998655E-3,-1.687681854E-2,2.197696495E-2
6.527977417E0,-1.291845911E-2,-2.659934945E-3,2.132479548E-3,1.336073758E-2
6.537927417E0,-6.283102739E-3,-6.147958967E-3,-1.567989349E-2,1.797592388E-2
6.547877417E0,-1.475310068E-2,-1.113303922E-2,-6.548296809E-3,1.960812925E-2
6.557827417E0,-1.237171703E-2,-5.923782201E-3,-7.894910574E-3,1.582656599E-2
6.567777417E0,-9.547315445E-3,2.966959449E-4,-7.296740413E-3,1.202005330E-2
6.577727417E0,-8.363962336E-3,1.393692987E-4,-7.596702576E-3,1.129978671E-2
6.587678417E0,-1.060607261E-2,-9.517517486E-3,-1.852397919E-2,2.337113006E-2
6.597628417E0,-1.411423755E-2,-2.826589728E-3,-6.548296809E-3,1.581396542E-2
6.607578417E0,-7.551578516E-3,-1.453533301E-2,-1.014082611E-2,1.926495777E-2
6.617528417E0,-5.957412827E-3,-1.030545264E-2,-9.243278503E-3,1.507087652E-2
6.627478417E0,-8.734703218E-3,-1.152922005E-2,-7.296740413E-3,1.620062888E-2
6.637428417E0,-4.882470751E-3,-1.558908806E-3,-9.391797781E-3,1.069927955E-2
6.647379417E0,-1.097789614E-2,-9.042161694E-3,-5.607479811E-4,1.423338786E-2
6.657329417E0,-7.789752055E-3,4.442513455E-5,-1.163771331E-2,1.400423442E-2
6.667279417E0,-1.002997112E-2,-7.694890117E-3,-8.494250178E-3,1.523036246E-2
6.677229417E0,-1.629938772E-3,-2.401497150E-3,-1.373394012E-2,1.403727183E-2
6.687179417E0,-1.580575481E-3,-7.192093525E-3,-1.493144989E-2,1.664850215E-2
6.697129417E0,-7.811962338E-3,-2.521342230E-3,-1.118923187E-2,1.387742167E-2
6.707080417E0,-1.236448111E-2,-5.972154206E-4,-1.014141083E-2,1.600266455E-2
6.717030417E0,-8.268186771E-3,2.279710611E-3,-1.373335540E-2,1.619151147E-2
6.726980417E0,-2.602285054E-3,-1.908321055E-3,-1.148860931E-2,1.193321921E-2
6.736930417E0,-1.057989718E-2,-9.087349707E-4,-1.463090301E-2,1.807825618E-2
6.746880417E0,-8.692045952E-3,-7.157421364E-3,-5.499891043E-3,1.253112704E-2
6.756830417E0,-8.729527518E-3,-2.481284235E-3,-1.163771331E-2,1.475797389E-2
6.766781417E0,-4.686552482E-3,-5.843844367E-3,-1.717619598E-2,1.873862320E-2
6.776731417E0,-1.094643538E-2,-4.085550075E-3,-9.991722107E-3,1.537370084E-2
6.786681417E0,-1.573054043E-2,-3.232084997E-3,-8.344561458E-3,1.809773416E-2
6.796631417E0,-7.058466375E-3,-6.494607492E-3,-1.118806243E-2,1.473684549E-2
6.806581417E0,-2.260990385E-3,-3.178907312E-3,-1.328428924E-2,1.384521108E-2
6.816531417E0,-1.413065543E-2,-6.157127218E-3,-1.612779021E-2,2.230899495E-2
6.826482417E0,-4.505768451E-3,-5.610869369E-3,-1.298432708E-2,1.484508518E-2
6.836432417E0,-9.766458124E-3,7.638976118E-3,-3.704211116E-3,1.294058887E-2
6.846382417E0,-1.549184156E-2,-8.022060106E-4,-3.854484558E-3,1.598429668E-2
6.856332417E0,-1.495631883E-2,-4.885901422E-3,-1.238615692E-2,2.002449472E-2
6.866282417E0,-5.752495327E-3,-6.040904671E-3,-1.433152556E-2,1.658241106E-2
6.876232417E0,-2.394265789E-3,4.951769393E-3,-6.098645926E-3,8.212552034E-3
6.886183417E0,-5.295576537E-3,4.628203665E-3,-5.499306321E-3,8.927808804E-3
6.896133417E0,1.656607557E-3,-2.900081920E-4,-1.522790372E-2,1.532049298E-2
6.906083417E0,1.579278130E-3,-8.014582065E-3,-1.073665738E-2,1.349086568E-2
6.916033417E0,-1.040551311E-2,1.411330565E-3,-4.000664949E-3,1.123707601E-2
6.925983417E0,-4.710229137E-3,-3.360161860E-3,-1.268319547E-2,1.394060234E-2
6.935933417E0,-1.083664934E-2,-6.175938807E-3,-5.797514319E-3,1.375450331E-2
6.945884417E0,-6.699602650E-3,-6.686423575E-3,-7.592609525E-3,1.213427605E-2
6.955834417E0,-7.903932645E-3,-7.905408153E-3,-1.537642300E-2,1.901057636E-2
6.965784417E0,-1.269462495E-3,-1.962330141E-3,-1.851871669E-2,1.866561391E-2
6.975734417E0,-1.178300749E-3,-1.238436164E-2,-1.492618740E-2,1.943069417E-2
6.985684417E0,-1.559242280E-4,-9.264529478E-3,-1.477649868E-2,1.744135121E-2
6.995634417E0,-7.455259343E-3,4.116366729E-3,-9.537393451E-3,1.278621292E-2
7.005585417E0,-1.963650333E-3,-7.053843420E-4,-1.223179042E-2,1.240847237E-2
7.015535417E0,-6.394633809E-3,-3.620970519E-3,-9.686497450E-3,1.215857730E-2
7.025485417E0,-2.753526941E-3,2.504120353E-3,-6.543034315E-3,7.527537938E-3
7.035435417E0,-3.782481579E-3,-4.498052867E-3,-1.297847986E-2,1.424712554E-2
7.045385417E0,-4.285533987E-3,-2.709417008E-3,-1.372750819E-2,1.463390662E-2
7.055335417E0,-5.064689177E-3,-7.367994217E-3,-6.692138314E-3,1.116795104E-2
7.065286417E0,-6.720204949E-3,-8.293005461E-3,-2.315731287E-2,2.549894573E-2
7.075236417E0,-1.121057421E-2,-1.134203149E-2,-6.990931034E-3,1.741240274E-2
7.085186417E0,-4.639651417E-3,-5.979184569E-3,-2.600256801E-2,2.708155380E-2
7.095136417E0,-3.353309655E-3,7.193258400E-3,-1.717034876E-2,1.891582747E-2
7.105086417E0,-1.122572215E-2,-8.591295686E-3,8.725799918E-3,1.661224800E-2
7.115036417E0,-8.880486181E-3,6.454321090E-4,-7.140619755E-3,1.141350375E-2
7.124990875E0,-3.761363081E-3,-3.936382122E-3,-2.570260584E-2,2.627293100E-2
7.134940875E0,-3.513002596E-3,1.340756499E-2,1.261829138E-2,1.874367263E-2
7.144890875E0,-4.582673041E-3,-6.036437033E-3,-3.932194054E-2,4.004565485E-2
7.154840875E0,1.345334686E-3,-6.391618839E-3,-2.584644735E-2,2.665898643E-2
7.164790875E0,3.233444931E-2,-3.981565568E-3,3.448161542E-2,4.743786756E-2
7.174740875E0,-4.245209669E-2,-6.604283899E-3,-3.078383625E-2,5.285301934E-2
7.184691875E0,1.600154974E-2,-2.231070913E-2,3.194333911E-3,2.764093170E-2
7.194641875E0,-3.028912982E-2,-3.303972402E-2,-1.462037802E-2,4.714668814E-2
7.204591875E0,2.347387108E-2,-4.571719105E-2,-4.710049152E-2,6.971040441E-2
7.214541875E0,1.621864315E-1,-6.576875076E-1,6.335925937E-2,6.803467439E-1
7.224491875E0,-1.333755463E-1,-1.963631841E0,5.419667244E-2,1.968902314E0
7.234441875E0,-1.100918660E0,-1.196199697E0,5.640990204E-1,1.720791479E0
7.244392875E0,-4.948794622E-1,-1.552583581E-1,9.346049166E-1,1.068876602E0
7.254342875E0,-1.155965847E-1,-3.117250707E-2,7.649912238E-3,1.199700660E-1
7.264292875E0,1.268847989E-1,4.646713574E-1,-2.273163557E-1,5.326274009E-1
7.274242875E0,7.809364347E-1,1.372491787E0,1.231464547E-1,1.583906711E0
7.284192875E0,1.079554177E0,3.262500166E0,5.073769355E-1,3.473726516E0
7.294142875E0,3.278299928E-1,2.046000398E0,-4.920858818E-1,2.129727365E0
7.304093875E0,4.410086989E-1,1.553824616E0,-2.702471977E-1,1.637648667E0
7.314043875E0,3.277532481E-1,1.102968986E0,-2.775521243E-1,1.183637596E0
7.323993875E0,9.163218427E-1,-2.541244873E-1,-3.642505449E-1,1.018284554E0
7.333943875E0,1.373277214E0,-1.364781356E0,-3.853233254E-1,1.974080171E0
7.343893875E0,8.393399595E-1,-2.224216515E0,-2.133298159E-1,2.386868300E0
7.353843875E0,-2.584449401E-1,-1.877566820E0,-1.194130075E-1,1.899028809E0
7.363794875E0,-1.470495214E0,-1.001664879E0,6.918273532E-1,1.909008589E0
7.373744875E0,-1.695038821E0,-4.566818681E-1,2.244458406E0,2.849440027E0
7.383694875E0,-1.141623102E0,4.601119179E-1,2.813967270E0,3.071386996E0
7.393644875E0,-7.555363492E-1,3.545249442E-1,3.944686630E0,4.032006414E0
7.403594875E0,-4.111020181E-1,-1.058798096E-1,5.096455382E0,5.114105285E0
7.413545875E0,-3.870629451E-1,5.542908277E-1,5.724482596E0,5.764265524E0
7.423495875E0,-3.686966946E-1,4.179271806E-1,5.644485084E0,5.671931968E0
7.433445875E0,3.137876851E-1,-5.982286334E-1,4.721724288E0,4.769802979E0
7.443395875E0,6.607089832E-1,-1.252981131E0,3.085417240E0,3.395040150E0
7.453345875E0,-1.884761526E-1,-2.059493433E0,1.931406666E0,2.829729346E0
7.463295875E0,-6.457333137E-1,-2.079687962E0,2.301904961E0,3.168728449E0
7.473246875E0,-1.067758150E0,-1.717586707E-1,3.260862361E0,3.435524974E0
7.483196875E0,-1.762320246E0,1.069564793E0,4.129918821E0,4.615839140E0
7.493146875E0,-2.572160637E0,1.159131200E0,4.830617570E0,5.594145295E0
7.503096875E0,-2.752710377E0,8.928049991E-1,4.695491924E0,5.515628668E0
7.513046875E0,-2.393644412E0,5.145537349E-1,4.692865940E0,5.293136107E0
7.522996875E0,-1.826979634E0,4.670023499E-1,4.908059263E0,5.257850465E0
7.532947875E0,-1.367204442E0,-3.050993805E-1,5.279458029E0,5.462143416E0
7.542897875E0,-1.147973470E0,-9.487402681E-1,5.163562122E0,5.374041772E0
7.552847875E0,-1.233807672E0,-6.335806069E-1,4.500228835E0,4.709115132E0
7.562797875E0,-1.710862994E0,-4.724053234E-1,4.011220343E0,4.386354707E0
7.572747875E0,-2.220214680E0,-4.364728676E-1,3.595930622E0,4.248597278E0
7.582697875E0,-2.570186325E0,-5.881249371E-1,3.007718269E0,3.999764727E0
7.592648875E0,-2.852605087E0,-8.637904572E-1,2.601557806E0,3.956209392E0
7.602598875E0,-2.822509175E0,-5.998076740E-1,2.300816209E0,3.690539597E0
7.612548875E0,-2.262894092E0,-6.045050347E-1,2.525682582E0,3.444588294E0
7.622498875E0,-1.979930370E0,-5.605845514E-1,2.765583315E0,3.447148152E0
7.632448875E0,-1.655798449E0,-8.371043497E-1,3.528926209E0,3.986945244E0
7.642399875E0,-1.176334367E0,-2.046919873E0,3.360291340E0,4.106726360E0
7.652349875E0,-8.249848258E-1,-2.314279716E0,2.329517852E0,3.385726508E0
7.662299875E0,-1.230675319E0,-1.364110388E0,1.576965995E0,2.421194053E0
7.672249875E0,-2.108925648E0,-7.256441402E-1,1.478431640E0,2.675796502E0
7.682199875E0,-2.889663862E0,-6.219665748E-1,1.430279819E0,3.283702182E0
7.692149875E0,-2.960511943E0,-1.051226463E0,1.856078156E0,3.648936032E0
7.702100875E0,-2.631700203E0,-1.672580835E0,1.522155365E0,3.469917803E0
7.712050875E0,-2.615105805E0,-1.147457600E0,-2.500277599E0,3.795632409E0
7.722000875E0,-1.518536231E0,-2.943375508E0,-1.416417825E-1,3.315037565E0
7.731950875E0,-1.348237390E0,-3.703900629E0,8.066807020E-1,4.023351549E0
7.741900875E0,-1.971878023E0,-2.741531378E0,-6.030613571E-1,3.430448984E0
7.751850875E0,-2.968843056E0,-1.391864197E0,5.764734828E-1,3.329209623E0
7.761801875E0,-4.363800430E0,-1.437080716E0,-3.657433391E-3,4.594340927E0
7.771751875E0,-4.763200343E0,-2.044245064E0,-7.636633211E-1,5.239293565E0
7.781701875E0,-2.415283642E0,-3.318336398E0,-1.950163949E0,4.544017050E0
7.791651875E0,-1.461525586E0,-4.272139478E0,-3.379473131E0,5.639864484E0
7.801601875E0,-1.190444575E0,-3.841158169E0,-3.011847573E0,5.024229311E0
7.811552875E0,-1.071059634E0,-2.948751438E0,-2.281789370E0,3.879286856E0
7.821502875E0,-1.449327709E0,-2.730728062E0,1.941293138E-1,3.097597900E0
7.831452875E0,-2.179493209E0,-3.293845920E0,1.804060741E0,4.342147712E0
7.841402875E0,-3.090521567E0,-2.423322394E0,1.097346961E-2,3.927331842E0
7.851352875E0,-4.526066512E0,-1.870555862E0,-1.527458789E0,5.130047530E0
7.861302875E0,-5.840686067E0,-1.385214159E0,-2.648124447E0,6.560868470E0
7.871253875E0,-5.353549268E0,-2.313623950E0,-4.222847157E0,7.200401632E0
7.881203875E0,-3.771913395E0,-4.131988150E0,-3.916045799E0,6.829060801E0
7.891153875E0,-2.716131073E0,-5.051852821E0,-3.069758104E0,6.505536085E0
7.901103875E0,-1.530145000E0,-4.526137848E0,-3.621060786E0,5.994943599E0
7.911053875E0,-1.279150929E0,-4.376798206E0,-4.094984631E0,6.128742837E0
7.921003875E0,-2.498761416E0,-4.652266383E0,-4.520194153E0,6.951226244E0
7.930954875E0,-4.234974575E0,-3.558428335E0,-4.576762456E0,7.179427307E0
7.940904875E0,-5.345733295E0,-2.659218369E0,-4.348616965E0,7.386391291E0
7.950854875E0,-5.731339041E0,-2.799590136E0,-3.428227800E0,7.241456896E0
7.960804875E0,-3.692762268E0,-3.489076849E0,-2.155706882E0,5.518806264E0
7.970754875E0,-4.228916860E-1,-4.142854616E0,-1.831230413E0,4.549229229E0
7.980705875E0,7.218896431E-1,-4.486977875E0,-1.901780432E0,4.926546856E0
7.990655875E0,-4.425523639E-2,-3.696216803E0,-1.957394031E0,4.182746534E0
8.000605875E0,-1.319787324E0,-2.747045887E0,-2.011644498E0,3.651686360E0
8.010555875E0,-2.781640354E0,-2.217505081E0,-1.361052879E0,3.808847172E0
8.020505875E0,-3.849762931E0,-1.420607355E0,-7.896144336E-1,4.178790595E0
8.030456875E0,-3.904554850E0,-1.505988983E0,-4.753061271E-1,4.211824701E0
8.040406875E0,-1.458728862E0,-2.865723315E0,-2.346756613E-1,3.224179380E0
8.050356875E0,1.592447668E0,-3.666037568E0,-1.398548149E0,4.234578840E0
8.060306875E0,2.275802990E0,-4.222767343E0,-2.178186648E0,5.268352718E0
8.070256875E0,1.399415292E0,-3.272196896E0,-2.946623052E0,4.620413736E0
8.080206875E0,1.969400704E-2,-2.269302056E0,-2.059259545E0,3.064419936E0
8.090157875E0,-1.165532513E0,-1.571681281E0,-3.270149640E-1,1.983831362E0
8.100107875E0,-1.792421858E0,-5.031192854E-1,6.647693628E-1,1.976821550E0
8.110057875E0,-1.449945760E0,-4.597639355E-1,1.243171842E0,1.964485126E0
8.120004542E0,1.256802287E0,-1.605534029E0,1.387857100E0,2.466462819E0
8.129954542E0,4.152080353E0,-2.299812535E0,4.527936890E-1,4.768011229E0
8.139905542E0,5.337888086E0,-2.347766720E0,-6.173688360E-1,5.863974937E0
8.149855542E0,5.140059823E0,-2.337855105E0,-1.294148453E0,5.793151275E0
8.159805542E0,4.847689101E0,-2.054314847E0,-1.461022725E0,5.463962528E0
8.169755542E0,4.888975121E0,-1.479455780E0,-1.293780078E0,5.269225183E0
8.179705542E0,5.044480067E0,-1.508367046E0,-1.248594550E0,5.411186435E0
8.189656542E0,5.086538504E0,-1.468278243E0,-1.758717338E0,5.578691749E0
8.199606542E0,4.348340392E0,-1.552717884E0,-1.413574909E0,4.828787738E0
8.209556542E0,3.795654552E0,-1.091231359E0,-9.137133998E-1,4.053720702E0
8.219506542E0,4.476534748E0,-8.019342247E-1,9.982775867E-2,4.548892990E0
8.229456542E0,5.625131970E0,-8.883911553E-1,1.070548587E0,5.794602903E0
8.239406542E0,6.340292053E0,-1.193016180E0,1.503103967E0,6.624342417E0
8.249357542E0,6.212464317E0,-1.269524658E0,1.189772730E0,6.451508730E0
8.259307542E0,5.604591286E0,-1.338324167E0,4.620762169E-1,5.780663413E0
8.269257542E0,4.861803110E0,-1.550585989E0,-2.310071182E-1,5.108308005E0
8.279207542E0,4.072324331E0,-1.749353607E0,-7.056221044E-1,4.487980175E0
8.289157542E0,3.812405655E0,-1.849675455E0,-9.672224396E-1,4.346407185E0
8.299108542E0,4.179888541E0,-1.951900280E0,-9.352177048E-1,4.707017641E0
8.309058542E0,4.426150460E0,-2.166570862E0,-6.011475635E-1,4.964495502E0
8.319008542E0,4.504112556E0,-2.416854496E0,-2.045882285E-1,5.115669254E0
8.328958542E0,4.211030812E0,-2.428271185E0,4.653038800E-1,4.883215042E0
8.338908542E0,3.791555654E0,-2.300153135E0,8.685255325E-1,4.518952901E0
8.348858542E0,3.467146282E0,-2.339728845E0,9.966251636E-1,4.299848384E0
8.358809542E0,3.298299159E0,-2.613947471E0,1.106851026E0,4.351622447E0
8.368759542E0,3.346127045E0,-2.930488245E0,1.229488188E0,4.614755547E0
8.378709542E0,3.424193221E0,-3.237978698E0,1.345795155E0,4.901098842E0
8.388659542E0,3.485924031E0,-3.431569483E0,1.399985980E0,5.087955995E0
8.398609542E0,3.372411448E0,-3.595548799E0,1.347820630E0,5.110552866E0
8.408560542E0,3.579256702E0,-4.287121214E0,1.269517057E0,5.727317033E0
8.418510542E0,3.581163479E0,-4.686358573E0,1.385448632E0,6.058560593E0
8.428460542E0,3.523737974E0,-4.767955883E0,1.156739397E0,6.040544565E0
8.438410542E0,2.919731122E0,-5.431364599E0,1.206362450E0,6.283300215E0
8.448360542E0,1.807572579E0,-5.460238734E0,1.160665290E0,5.867594872E0
8.458311542E0,1.034480038E0,-4.948601518E0,8.475853376E-1,5.126129810E0
8.468261542E0,7.871428156E-1,-5.112642814E0,9.731811909E-1,5.263629165E0
8.478211542E0,1.087264023E0,-5.519332450E0,1.332725458E0,5.781118481E0
8.488161542E0,1.221195082E0,-5.538504301E0,1.825815453E0,5.958183396E0
8.498111542E0,8.104585880E-1,-5.725197710E0,1.843646830E0,6.069082763E0
8.508061542E0,9.001086831E-2,-5.477993220E0,1.392686316E0,5.652971506E0
8.518012542E0,1.183409205E-1,-5.609633925E0,1.205282908E0,5.738876565E0
8.527962542E0,5.735659549E-1,-6.040394794E0,1.319839218E0,6.209454302E0
8.537912542E0,8.975332770E-1,-6.387241686E0,1.338555425E0,6.587423849E0
8.547862542E0,8.192969468E-1,-6.412099369E0,1.018919427E0,6.544040236E0
8.557812542E0,2.180536352E-1,-6.473129683E0,9.484967315E-1,6.545884304E0
8.567763542E0,1.978303090E-1,-7.478702840E0,7.245917876E-1,7.516326647E0
8.577713542E0,2.958661884E-1,-7.600747679E0,1.137584137E0,7.691098735E0
8.587663542E0,-6.792289424E-1,-4.939586865E0,2.687766230E-1,4.993306643E0
8.597613542E0,-1.436531662E0,-5.183643799E0,-8.408227403E-1,5.444333672E0
8.607563542E0,-2.248654660E0,-6.848035609E0,-1.669017541E-1,7.209708432E0
8.617514542E0,-3.033962327E0,-5.248796985E0,-3.364534664E-1,6.071902348E0
8.627464542E0,-3.242433107E0,-3.461976174E0,-6.706382132E-1,4.790449571E0
8.637414542E0,-2.949455443E0,-3.471210097E0,-3.012141980E-2,4.555161276E0
8.647364542E0,-2.083022775E0,-3.738427852E0,8.003692905E-1,4.353781999E0
8.657314542E0,-1.919477615E0,-3.243513672E0,9.410940834E-1,3.884640695E0
8.667265542E0,-3.432081699E0,-2.655809442E0,1.799468923E0,4.697935396E0
8.677215542E0,-4.299050118E0,-1.988579571E0,1.243471220E0,4.897193207E0
8.687165542E0,-4.963409591E0,-1.300457014E0,5.194491335E-1,5.157174674E0
8.697115542E0,-5.092708486E0,-1.216891531E0,-1.989924248E-1,5.239857127E0
8.707065542E0,-4.995794395E0,-1.512363617E0,-8.193481100E-1,5.283610193E0
8.717016542E0,-5.108571982E0,-1.608725147E0,-1.088879024E0,5.465451658E0
8.726966542E0,-5.186824100E0,-1.298191803E0,-9.760932505E-1,5.435182079E0
8.736916542E0,-5.213272226E0,-6.891002119E-1,-3.307764047E-1,5.269011239E0
8.746866542E0,-5.231645347E0,1.066578913E-1,5.250027823E-1,5.259003410E0
8.756816542E0,-4.965280700E0,6.942258811E-1,1.283871387E0,5.175353876E0
8.766766542E0,-4.777202085E0,1.020466601E0,1.483265533E0,5.105202101E0
8.776717542E0,-5.044332132E0,1.178406327E0,1.312595834E0,5.343859650E0
8.786667542E0,-5.153135952E0,1.073765725E0,1.008014370E0,5.359466013E0
8.796617542E0,-4.933235620E0,9.929285538E-1,6.865630319E-1,5.078788201E0
8.806567542E0,-4.658412391E0,1.004050543E0,4.544999065E-1,4.787013021E0
8.816517542E0,-4.421258972E0,1.042477275E0,3.727658451E-1,4.557767451E0
8.826468542E0,-4.205131263E0,1.115245289E0,4.766539103E-1,4.376539723E0
8.836418542E0,-4.039727858E0,1.300721308E0,6.759376178E-1,4.297460733E0
8.846368542E0,-4.018179407E0,1.328068736E0,9.274526024E-1,4.332401256E0
8.856318542E0,-4.266978725E0,1.349624496E0,1.028880671E0,4.592078958E0
8.866268542E0,-4.529109111E0,1.417841622E0,9.397123864E-1,4.837991688E0
8.876219542E0,-4.464008843E0,1.330933287E0,8.443425449E-1,4.734096819E0
8.886169542E0,-4.159550756E0,1.212528924E0,7.440358993E-1,4.396098077E0
8.896119542E0,-4.062185259E0,1.141126235E0,7.486715718E-1,4.285326976E0
8.906069542E0,-3.903517554E0,1.013114312E0,8.124225947E-1,4.113864409E0
8.916019542E0,-3.763526733E0,8.834055269E-1,8.533876759E-1,3.958889910E0
8.925970542E0,-3.511020280E0,5.906722766E-1,8.993467909E-1,3.672190327E0
8.935920542E0,-3.449560489E0,6.162292868E-1,8.497624022E-1,3.605731859E0
8.945870542E0,-3.596287302E0,7.458749217E-1,7.790835983E-1,3.754541652E0
8.955820542E0,-3.684984301E0,7.121534443E-1,6.953310049E-1,3.817035111E0
8.965770542E0,-3.695746102E0,5.996898526E-1,5.810325569E-1,3.788900368E0
8.975721542E0,-3.883762736E0,4.273928726E-1,4.157441226E-1,3.929264668E0
8.985671542E0,-4.317400143E0,2.488703620E-1,2.924900061E-1,4.334447007E0
8.995621542E0,-4.585948432E0,2.229134023E-2,1.824780788E-1,4.589631595E0
9.005571542E0,-4.521855055E0,-6.477779388E-2,1.218263727E-2,4.522335427E0
9.015521542E0,-4.173679968E0,-1.389333522E-1,-8.017351270E-2,4.176761274E0
9.025471542E0,-3.434183481E0,-2.627990144E-1,5.611112393E-2,3.444681112E0
9.035422542E0,-2.862924545E0,-2.656477779E-1,1.902964640E-1,2.881513220E0
9.045372542E0,-2.948411715E0,-2.409824681E-1,3.644587423E-1,2.980609731E0
9.055322542E0,-3.481423721E0,-9.337886453E-2,5.032183957E-1,3.518843488E0
9.065272542E0,-4.269798545E0,-2.307475019E-1,5.404715914E-1,4.310050297E0
9.075222542E0,-5.378940217E0,-5.883252043E-1,4.089799905E-1,5.426452713E0
9.085173542E0,-6.828496553E0,-6.757574505E-1,1.302391638E-1,6.863087901E0
9.095123542E0,-7.602826365E0,-7.050110704E-1,8.735213935E-2,7.635943932E0
9.105073542E0,-6.432925397E0,-1.370624186E0,6.302105641E-1,6.607443165E0
9.115023542E0,-4.205764809E0,-2.157686895E0,1.194880857E0,4.875634382E0
9.124973375E0,-2.927573408E0,-2.611927843E0,1.320372630E0,4.139593821E0
9.134924375E0,-2.984991311E0,-2.711648013E0,1.029274846E0,4.162044544E0
9.144874375E0,-3.901298536E0,-2.588597453E0,5.434519172E-1,4.713417765E0
9.154824375E0,-4.975702778E0,-2.579231383E0,2.530686994E-1,5.610177931E0
9.164774375E0,-5.739268450E0,-2.504106941E0,1.264355135E-1,6.263045573E0
9.174724375E0,-6.172429601E0,-2.501493820E0,2.437388456E-1,6.664515521E0
9.184675375E0,-6.032000531E0,-2.781578958E0,5.639007998E-1,6.666348027E0
9.194625375E0,-4.677851167E0,-3.564083762E0,1.256807549E0,6.013696851E0
9.204575375E0,-1.972537881E0,-4.427045669E0,2.159872584E0,5.306099191E0
9.214525375E0,3.556437358E-1,-4.758884513E0,2.444156023E0,5.361656735E0
9.224475375E0,6.253491890E-1,-4.872840314E0,2.160557878E0,5.366902708E0
9.234426375E0,-7.488815600E-1,-4.872224602E0,1.396911514E0,5.123549350E0
9.244376375E0,-2.568342990E0,-4.255157409E0,4.825777610E-1,4.993559010E0
9.254326375E0,-4.157170354E0,-3.930013043E0,8.980274398E-2,5.721462436E0
9.264276375E0,-5.340126400E0,-4.002763515E0,2.382647188E-1,6.678011366E0
9.274226375E0,-5.796476439E0,-4.186428652E0,6.420652092E-1,7.178967314E0
9.284177375E0,-4.700814352E0,-4.952211004E0,1.465518064E0,6.983537256E0
9.294127375E0,-2.013200150E0,-6.126219640E0,2.351068350E0,6.863750018E0
9.304077375E0,2.023309109E-1,-6.691043715E0,2.403296850E0,7.112442587E0
9.314027375E0,1.129860404E0,-6.765171792E0,2.024123626E0,7.151308297E0
9.323977375E0,9.164557439E-1,-6.553415462E0,1.247409904E0,6.733734240E0
9.333928375E0,-3.118706024E-1,-6.022805200E0,4.845903726E-1,6.050311858E0
9.343878375E0,-2.009320230E0,-5.550934312E0,-1.626660677E-1,5.905649818E0
9.353828375E0,-3.472301188E0,-5.139651103E0,-5.422111380E-1,6.226305639E0
9.363778375E0,-4.277213691E0,-4.953430733E0,-5.241361519E-1,6.565497064E0
9.373728375E0,-3.331479185E0,-5.424806947E0,2.968596121E-1,6.373022014E0
9.383679375E0,5.381245190E-1,-5.922708469E0,1.611880889E0,6.161672955E0
9.393629375E0,4.786496235E0,-6.145861022E0,2.257774855E0,8.110468618E0
9.403579375E0,7.642636548E0,-6.378089039E0,2.075800733E0,1.016852309E1
9.413529375E0,8.651068994E0,-6.115901644E0,1.260135199E0,1.066926372E1
9.423479375E0,7.897826580E0,-5.026613315E0,-6.195066968E-2,9.361962615E0
9.433430375E0,5.851403428E0,-3.994458715E0,-8.547103161E-1,7.136186112E0
9.443380375E0,4.689721307E0,-3.543795678E0,-8.115029007E-1,5.933844513E0
9.453330375E0,5.312785989E0,-3.252494411E0,-3.064461404E-1,6.236852098E0
9.463280375E0,6.428515427E0,-3.073824258E0,5.030798167E-1,7.143339238E0
9.473230375E0,7.069201278E0,-2.725212676E0,9.003437412E-1,7.629613994E0
9.483181375E0,7.024759516E0,-2.415816908E0,9.885816606E-1,7.494045055E0
9.493131375E0,6.892358088E0,-2.118819283E0,7.545539439E-1,7.250058401E0
9.503081375E0,7.108411537E0,-1.959441726E0,5.933561486E-1,7.397364259E0
9.513031375E0,7.124482024E0,-1.866725644E0,5.257464751E-1,7.383719801E0
9.522981375E0,6.829557822E0,-1.834006671E0,7.495164945E-1,7.111133207E0
9.532932375E0,6.361344368E0,-1.575267963E0,9.196856727E-1,6.617703005E0
9.542882375E0,5.447262009E0,-1.205597050E0,1.067904477E0,5.680365095E0
9.552832375E0,4.314904844E0,-8.800644279E-1,1.017545916E0,4.519769563E0
9.562782375E0,3.479875671E0,-7.034279367E-1,7.060058279E-1,3.619777586E0
9.572732375E0,2.966380209E0,-6.472929123E-1,4.050730272E-1,3.063084036E0
9.582683375E0,2.578738462E0,-5.423178497E-1,1.209385461E-1,2.637920931E0
9.592633375E0,2.055007449E0,-2.827187240E-1,-9.081544518E-2,2.076350871E0
9.602583375E0,1.375868554E0,-8.780529857E-2,-7.420306697E-2,1.380662936E0
9.612533375E0,8.073133707E-1,1.744282901E-2,1.201784080E-1,8.163957255E-1
9.622484375E0,9.117300242E-1,3.365072608E-2,5.274334699E-1,1.053835886E0
9.632434375E0,1.542724700E0,6.923863471E-2,9.914772749E-1,1.835162302E0
9.642384375E0,1.931500806E0,1.351940578E-1,1.277341801E0,2.319606621E0
9.652334375E0,1.828301543E0,5.758133322E-2,1.244786843E0,2.212576875E0
9.662284375E0,1.452831361E0,3.537565470E-4,8.844831687E-1,1.700890815E0
9.672235375E0,1.027441159E0,-2.187180251E-2,4.751026440E-1,1.132182068E0
9.682185375E0,4.794126266E-1,-8.851778179E-2,2.762331386E-1,5.603361590E-1
9.692135375E0,-3.020145357E-2,-5.221563578E-3,2.466438885E-1,2.485409428E-1
9.702085375E0,-4.364040166E-1,1.257031497E-1,3.355341379E-1,5.646529069E-1
9.712035375E0,-6.648366058E-1,1.661951181E-1,3.979158159E-1,7.924427590E-1
9.721986375E0,-6.168672180E-1,1.197056606E-1,4.325536251E-1,7.628612249E-1
9.731936375E0,-1.934399271E-1,9.482634276E-2,5.339559659E-1,5.757777472E-1
9.741886375E0,7.033615708E-2,2.575043607E-1,6.193160319E-1,6.743945567E-1
9.751836375E0,-6.199802756E-3,2.063611042E-1,5.403493115E-1,5.784468180E-1
9.761786375E0,-2.289787191E-1,1.095622033E-2,3.704075899E-1,4.356065601E-1
9.771737375E0,-5.264031905E-1,-2.388178289E-2,2.195091534E-1,5.708370406E-1
9.781687375E0,-7.505731595E-1,5.045270026E-3,1.985574102E-1,7.764087632E-1
9.791637375E0,-7.385085994E-1,4.896166027E-2,1.881768483E-1,7.636771057E-1
9.801587375E0,-6.253725779E-1,-8.911156654E-4,1.617193669E-1,6.459448962E-1
9.811537375E0,-4.854832059E-1,-1.080869508E-1,4.081590414E-2,4.990417519E-1
9.821488375E0,-3.918879944E-1,-1.569673347E-1,-1.262438710E-1,4.406273474E-1
9.831438375E0,-4.424494529E-1,-1.928610528E-1,-2.949313648E-1,5.656336394E-1
9.841388375E0,-5.899793816E-1,-1.705276126E-1,-3.399224733E-1,7.019277920E-1
9.851338375E0,-5.926714396E-1,-8.676917195E-2,-1.356032167E-1,6.141470158E-1
9.861288375E0,-5.123932618E-1,4.430347592E-2,7.432278872E-2,5.196475052E-1
9.871239375E0,-2.608068681E-1,-5.660864890E-2,2.921788611E-1,3.957186481E-1
9.881189375E0,9.463250756E-2,-1.134266281E-1,1.911082037E-1,2.415434888E-1
9.891139375E0,2.805382973E-1,-2.213328999E-1,8.650305055E-2,3.676584918E-1
9.901089375E0,2.655618238E-1,-2.292704952E-1,-4.588492848E-2,3.538268912E-1
9.911039375E0,1.273231208E-1,-2.865030420E-1,-7.299503222E-2,3.219059566E-1
9.920990375E0,-6.329377055E-2,-3.127696118E-1,-1.045869537E-1,3.358114982E-1
9.930940375E0,-2.780397820E-1,-2.368005395E-1,-1.641835298E-1,4.004208378E-1
9.940890375E0,-4.165211445E-1,-2.151243263E-1,-1.820437038E-1,5.028998406E-1
9.950840375E0,-3.591494340E-1,-1.952265438E-1,-1.188312826E-1,4.257024701E-1
9.960790375E0,-1.074519432E-1,-7.055074990E-2,2.038777918E-3,1.285592665E-1
9.970741375E0,1.341251868E-1,4.275016308E-2,2.138939260E-1,2.560620115E-1
9.980691375E0,2.485780013E-1,2.892091334E-2,2.334952547E-1,3.422681345E-1
9.990641375E0,1.870208538E-1,-7.171668470E-2,3.258229360E-2,2.029327190E-1
1.000059137E1,-3.991718709E-2,-9.105576575E-2,-1.308321080E-1,1.643215591E-1
1.001054137E1,-2.219170368E-1,-4.103166640E-2,-2.715838712E-1,3.531126845E-1
1.002049237E1,-3.031968427E-1,-3.379573703E-2,-3.175190858E-1,4.403281130E-1
1.003044237E1,-1.398390859E-1,-6.050874174E-2,-2.562969106E-1,2.981683823E-1
1.004039237E1,3.441109800E-1,-3.698627025E-2,-4.820620000E-2,3.494340975E-1
1.005034238E1,8.127577132E-1,-5.281058997E-2,6.725525916E-2,8.172437388E-1
1.006029237E1,9.382184958E-1,-1.344076073E-1,1.225840256E-1,9.556914744E-1
1.007024337E1,7.503199750E-1,-1.022602004E-1,1.437461954E-1,7.707789451E-1
1.008019338E1,4.416776204E-1,4.067264736E-2,1.504973906E-1,4.683832290E-1
1.009014337E1,1.468382031E-1,8.852830678E-2,2.611289766E-1,3.123892786E-1
1.010009337E1,-8.577105224E-2,9.788940668E-2,3.347507572E-1,3.591616333E-1
1.011004337E1,-7.191724420E-2,6.321190953E-2,2.701173896E-1,2.865854840E-1
1.011999437E1,9.548620105E-2,-1.555914849E-2,2.317093688E-1,2.510954665E-1
1.012994475E1,5.029827529E-1,-1.805354145E-1,1.984731372E-1,5.700669012E-1
1.013989475E1,8.873512280E-1,-2.215150407E-1,1.147790891E-1,9.217566677E-1
1.014984475E1,9.614290184E-1,-9.807797939E-2,-5.037083924E-2,9.677304733E-1
1.015979575E1,7.150232577E-1,-8.563715100E-2,-2.701128580E-2,7.206397091E-1
1.016974575E1,4.206826079E-1,-1.285978138E-2,-1.415237419E-1,4.440362599E-1
1.017969575E1,2.910679632E-1,-3.047568798E-2,-1.423511229E-1,3.254430349E-1
1.018964575E1,1.789914572E-1,-3.967774361E-2,-3.842439294E-2,1.873197776E-1
1.019959575E1,1.553096491E-1,-7.362053812E-2,-3.324383296E-2,1.750606271E-1
1.020954675E1,1.800059491E-1,-1.413418204E-1,-4.906924903E-2,2.340671765E-1
1.021949675E1,1.734482968E-1,-2.420145017E-1,-4.311912239E-2,3.008564266E-1
1.022944675E1,1.410634929E-1,-2.189136145E-1,-8.341696322E-2,2.734601788E-1
1.023939675E1,1.010843253E-1,-1.778676224E-1,-1.751510060E-1,2.693191542E-1
1.024934675E1,1.933294147E-1,-2.684538567E-1,-1.944574157E-1,3.837413482E-1
1.025929775E1,2.794466221E-1,-2.752819428E-1,-2.210540608E-1,4.502615467E-1
1.026924775E1,2.117306024E-1,-2.214399040E-1,-1.356109643E-1,3.350459859E-1
1.027919775E1,3.364680845E-1,-2.133333242E-1,1.918471456E-2,3.988607932E-1
1.028914775E1,5.060958105E-1,-2.584732443E-1,9.649491884E-2,5.764136161E-1
1.029909775E1,5.162559325E-1,-3.167425025E-1,1.345148306E-2,6.058274862E-1
1.030904875E1,4.232623994E-1,-2.991792208E-1,-1.686242708E-1,5.450627575E-1
1.031899875E1,3.156467342E-1,-2.506286198E-1,-3.103245255E-1,5.086736449E-1
1.032894875E1,2.645531791E-1,-2.670709902E-1,-2.539725693E-1,4.536709869E-1
1.033889875E1,3.764759034E-1,-2.299955499E-1,-1.276113886E-1,4.592567096E-1
1.034884875E1,6.954906338E-1,-2.675785285E-1,5.659870863E-2,7.473345332E-1
1.035879975E1,1.238115170E0,-3.208513409E-1,1.734559713E-1,1.290721399E0
1.036874975E1,1.807913471E0,-3.726430535E-1,1.975512141E-1,1.856459116E0
1.037869975E1,2.414310080E0,-3.951121491E-1,3.875589352E-2,2.446734312E0
1.038864975E1,2.868176807E0,-6.114532810E-1,-5.793889046E-2,2.933201361E0
1.039859975E1,2.999522227E0,-7.016810811E-1,-2.857061030E-1,3.093722338E0
1.040855075E1,3.165523510E0,-7.437950671E-1,-2.859083802E-1,3.264278450E0
1.041850075E1,3.342267882E0,-8.619310427E-1,-5.818505824E-2,3.452110256E0
1.042845075E1,3.614642297E0,-1.017523697E0,3.921563816E-1,3.775550296E0
1.043840075E1,3.990354554E0,-1.057100576E0,5.921329111E-1,4.170253287E0
1.044835075E1,4.324052812E0,-1.135996472E0,6.660341156E-1,4.520124130E0
1.045830175E1,4.468891268E0,-1.210309321E0,7.519753218E-1,4.690554839E0
1.046825175E1,4.459453277E0,-1.281628979E0,8.702984083E-1,4.720880817E0
1.047820175E1,4.360373962E0,-1.482356291E0,1.224530919E0,4.765471355E0
1.048815175E1,4.309566336E0,-1.635928148E0,1.614606276E0,4.884217065E0
1.049810175E1,4.201380567E0,-1.824361689E0,1.970085998E0,4.986093970E0
1.050805275E1,4.059223060E0,-1.792959802E0,2.030567257E0,4.880081976E0
1.051800275E1,3.918875266E0,-1.912925372E0,1.939294560E0,4.772602039E0
1.052795275E1,3.760844323E0,-2.076745643E0,1.800039611E0,4.658000117E0
1.053790275E1,3.595001500E0,-2.242202550E0,1.696049219E0,4.563780342E0
1.054785275E1,3.385041434E0,-2.346057286E0,1.716485238E0,4.461929165E0
1.055780375E1,3.323495981E0,-2.306634774E0,1.744222090E0,4.405507941E0
1.056775375E1,3.313225932E0,-2.551542478E0,1.913123592E0,4.598682090E0
1.057770375E1,3.391928869E0,-3.003410041E0,1.835219969E0,4.888116781E0
1.058765375E1,3.391944072E0,-3.660494408E0,2.052474436E0,5.396031431E0
1.059760375E1,3.054578440E0,-3.635161931E0,1.966716686E0,5.139341031E0
1.060755475E1,2.468365250E0,-3.554313065E0,1.426474890E0,4.556401978E0
1.061750475E1,1.861426604E0,-3.654741333E0,1.160571881E0,4.262507513E0
1.062745475E1,1.318986840E0,-3.758460998E0,1.083206055E0,4.127843349E0
1.063740475E1,1.091156514E0,-3.962390245E0,1.155106781E0,4.269125282E0
1.064735575E1,1.061488034E0,-4.055683740E0,1.309640505E0,4.392093544E0
1.065730575E1,1.348215609E0,-4.304534807E0,1.496605225E0,4.752529056E0
1.066725575E1,1.787434476E0,-4.707455328E0,1.700703749E0,5.314833103E0
1.067720575E1,2.076281374E0,-4.963970924E0,1.834776896E0,5.684923741E0
1.068715575E1,1.925811758E0,-5.068910319E0,1.675852790E0,5.675481065E0
1.069710675E1,1.256896719E0,-5.095222789E0,1.466919204E0,5.449122552E0
1.070705675E1,4.790196937E-1,-4.895856124E0,1.246645088E0,5.074740489E0
1.071700675E1,-9.732193440E-2,-4.870181000E0,9.293681502E-1,4.959018017E0
1.072695675E1,-4.434974201E-1,-4.912755162E0,8.024695373E-1,4.997580475E0
1.073690675E1,-2.235313068E-1,-5.099184278E0,7.405324669E-1,5.157522164E0
1.074685775E1,3.429509655E-1,-5.460578458E0,7.670111445E-1,5.524838328E0
1.075680775E1,9.582101262E-1,-5.783096840E0,8.526292920E-1,5.923626627E0
1.076675775E1,1.350503040E0,-6.028737785E0,8.418844485E-1,6.235247161E0
1.077670775E1,1.004107772E0,-5.868878417E0,6.013542625E-1,5.984445943E0
1.078665775E1,5.710536987E-4,-5.431314898E0,5.238491267E-2,5.431567547E0
1.079660875E1,-1.333030683E0,-4.939038396E0,-7.177423592E-1,5.165871192E0
1.080655875E1,-2.368713347E0,-4.517022039E0,-1.131773028E0,5.224480951E0
1.081650875E1,-2.075305035E0,-4.577030259E0,-8.787217610E-1,5.101788795E0
1.082645875E1,-1.211003531E0,-4.610119067E0,-4.132215607E-1,4.784399589E0
1.083640875E1,-9.876906180E-1,-4.435149325E0,3.140820193E-1,4.554638274E0
1.084635975E1,-1.281178159E0,-3.779427359E0,9.436188380E-1,4.100720077E0
1.085630975E1,-1.879883048E0,-2.870932599E0,9.470020370E-1,3.559919539E0
1.086625975E1,-3.099045346E0,-2.176526624E0,1.173492839E0,3.964648237E0
1.087620975E1,-3.784928420E0,-1.736813668E0,1.342429497E0,4.375422473E0
1.088615975E1,-3.544976523E0,-1.661142511E0,1.151633608E0,4.080749069E0
1.089611075E1,-3.348999782E0,-1.656675823E0,8.615790403E-1,3.834409050E0
1.090606075E1,-3.553098013E0,-1.627884133E0,3.699638593E-1,3.925733753E0
1.091601075E1,-3.986533983E0,-1.430352325E0,-7.797494134E-2,4.236087943E0
1.092596075E1,-4.299088710E0,-9.849856961E-1,-4.241839206E-1,4.430834296E0
1.093591075E1,-4.492974487E0,-6.902450967E-1,-3.776739979E-1,4.561348012E0
1.094586075E1,-4.635617605E0,-6.527732152E-1,1.018350987E-1,4.682460234E0
1.095581175E1,-4.988311713E0,-3.832709527E-1,5.906997585E-1,5.037765038E0
1.096576175E1,-5.806361157E0,8.321698844E-2,8.883469357E-1,5.874514042E0
1.097571175E1,-6.924497893E0,5.112436992E-1,1.112607610E0,7.031922702E0
1.098566175E1,-7.600687453E0,7.318720096E-1,1.363285346E0,7.756586449E0
1.099561175E1,-7.400509779E0,7.824714750E-1,1.687712844E0,7.630739233E0
1.100556275E1,-7.245680771E0,6.429703581E-1,1.728689547E0,7.476741822E0
1.101551275E1,-7.302924428E0,5.763559538E-1,1.436731637E0,7.465191838E0
1.102546275E1,-7.611162155E0,5.601492262E-1,9.888336756E-1,7.695540822E0
1.103541275E1,-7.706136725E0,3.595985001E-1,7.013184806E-1,7.746334741E0
1.104536275E1,-7.687437914E0,4.566868383E-1,4.071164829E-1,7.711744834E0
1.105531375E1,-7.803153142E0,6.419611287E-1,2.064195764E-1,7.832236085E0
1.106526375E1,-7.794113347E0,7.711255378E-1,1.112029320E-1,7.832956246E0
1.107521375E1,-7.572234317E0,8.226237202E-1,7.495662689E-2,7.617155692E0
1.108516375E1,-7.279737879E0,8.032630044E-1,1.968909538E-1,7.326566801E0
1.109511375E1,-6.800076746E0,7.247348982E-1,4.857374867E-1,6.855816897E0
1.110506475E1,-5.881813043E0,4.093641526E-1,9.086906415E-1,5.965653557E0
1.111501475E1,-4.963000286E0,3.688891411E-2,1.134281411E0,5.091102725E0
1.112496967E1,-4.854887608E0,5.856863558E-2,1.011096949E0,4.959403292E0
1.113491967E1,-5.137408111E0,1.931311941E-1,6.864449181E-1,5.186662548E0
1.114486967E1,-5.280792364E0,1.650066715E-1,4.753680345E-1,5.304712053E0
1.115482067E1,-5.158058723E0,7.086766899E-2,2.866181590E-1,5.166501910E0
1.116477067E1,-4.946928629E0,-9.221468389E-2,2.198751891E-1,4.952671149E0
1.117472067E1,-4.872523395E0,-1.783728218E-1,3.963272005E-1,4.891868390E0
1.118467067E1,-4.524358833E0,-4.318051815E-1,7.963475025E-1,4.614157334E0
1.119462067E1,-4.024840847E0,-7.431887108E-1,1.106670347E0,4.239857611E0
1.120457167E1,-3.665966525E0,-9.139683384E-1,1.329079134E0,4.005134209E0
1.121452167E1,-3.318097832E0,-9.900523084E-1,1.282400227E0,3.692496058E0
1.122447167E1,-3.363253247E0,-9.800266725E-1,9.417063600E-1,3.627497147E0
1.123442167E1,-3.620960214E0,-1.080678304E0,6.167900348E-1,3.828792030E0
1.124437167E1,-3.595474247E0,-1.296339405E0,3.611591220E-1,3.839058065E0
1.125432167E1,-3.437857871E0,-1.440841645E0,3.571836001E-1,3.744659065E0
1.126427267E1,-3.203796168E0,-1.722724802E0,6.093868750E-1,3.688284559E0
1.127422267E1,-2.839617251E0,-2.051407319E0,9.954756010E-1,3.641794859E0
1.128417267E1,-2.513624454E0,-2.287147758E0,1.385787771E0,3.670117233E0
1.129412267E1,-2.392248974E0,-2.296878110E0,1.630234129E0,3.695425215E0
1.130407267E1,-2.627390805E0,-2.017955983E0,1.678962486E0,3.714060287E0
1.131402367E1,-2.927652930E0,-1.659861971E0,1.579032401E0,3.717477204E0
1.132397367E1,-2.688165010E0,-1.609386467E0,1.587655874E0,3.512407593E0
1.133392367E1,-1.934025342E0,-2.049500542E0,1.716002258E0,3.299328756E0
1.134387367E1,-1.162177527E0,-2.457235660E0,1.677669082E0,3.194250654E0
1.135382367E1,-5.481789890E-1,-2.667217360E0,1.632033902E0,3.174599708E0
1.136377467E1,-4.375974699E-1,-2.795635664E0,1.559391603E0,3.230908926E0
1.137372467E1,-9.474301994E-1,-2.630565843E0,1.354947217E0,3.106989314E0
1.138367467E1,-1.710140132E0,-2.295804561E0,1.128965195E0,3.077313807E0
1.139362467E1,-2.399359919E0,-2.156974704E0,1.052289487E0,3.393638322E0
1.140357467E1,-2.660384304E0,-2.185222018E0,1.195832784E0,3.644565264E0
1.141352567E1,-2.173256422E0,-2.498125239E0,1.444277469E0,3.612424476E0
1.142347567E1,-1.116785153E0,-3.420087891E0,1.774509498E0,4.011619899E0
1.143342567E1,2.268604191E-1,-4.378279890E0,1.795517374E0,4.737581988E0
1.144337567E1,5.394149995E-1,-4.701522743E0,1.294401637E0,4.906196107E0
1.145332567E1,-4.610865757E-1,-4.724980602E0,8.134927813E-1,4.816618422E0
1.146327667E1,-1.782902591E0,-4.536513732E0,2.948225335E-1,4.883197602E0
1.147322667E1,-2.845282618E0,-4.290136038E0,-3.058678508E-2,5.147993391E0
1.148317667E1,-3.537957818E0,-4.092427059E0,-1.856279739E-1,5.412907028E0
1.149312667E1,-3.776836458E0,-4.074219999E0,-6.930697404E-2,5.555948675E0
1.150307667E1,-2.972442894E0,-4.522723074E0,6.741805295E-1,5.453894035E0
1.151302767E1,-1.907857882E0,-4.952692230E0,1.002734261E0,5.401347797E0
1.152297767E1,-1.461715328E0,-5.393320275E0,9.802319098E-1,5.673215128E0
1.153292767E1,-1.192416256E0,-5.710208373E0,1.041593687E0,5.925643729E0
1.154287767E1,-9.131889045E-1,-5.384535418E0,7.987343359E-1,5.519521010E0
1.155282767E1,-1.088513573E0,-4.992286066E0,4.025924190E-1,5.125413409E0
1.156277767E1,-1.694266988E0,-4.859519772E0,7.027183771E-3,5.146408692E0
1.157272867E1,-2.022272397E0,-4.691843846E0,-2.439820898E-1,5.114930262E0
1.158267867E1,-1.771174831E0,-4.627180658E0,-3.508633081E-1,4.966987637E0
1.159262867E1,-1.135610556E0,-4.819364018E0,-1.136791913E-1,4.952656240E0
1.160257867E1,8.465195364E-1,-5.072812166E0,8.416622543E-1,5.211373518E0
1.161252867E1,3.760449051E0,-5.197675363E0,1.423551428E0,6.571400529E0
1.162247967E1,5.758827386E0,-5.080927516E0,1.528993099E0,7.830564296E0
1.163242967E1,6.289542899E0,-4.821597655E0,1.215749570E0,8.017742877E0
1.164237967E1,5.536553670E0,-3.948028899E0,3.064911640E-1,6.806929966E0
1.165232967E1,4.497625655E0,-3.226370221E0,-3.095621216E-1,5.543819084E0
1.166227967E1,4.016567622E0,-2.986580585E0,-4.398468572E-1,5.024534238E0
1.167223067E1,4.365463378E0,-2.931550976E0,-8.963081757E-2,5.259210522E0
1.168218067E1,6.533328522E0,-2.832691517E0,5.999891935E-1,7.146223467E0
1.169213067E1,8.733521166E0,-2.563235155E0,7.850419110E-1,9.135691393E0
1.170208067E1,9.496303312E0,-2.614499449E0,7.156711292E-1,9.875604747E0
1.171203067E1,9.276981270E0,-2.489119650E0,3.666946810E-1,9.612105030E0
1.172198167E1,8.334866774E0,-2.045132087E0,4.445926767E-2,8.582222674E0
1.173193167E1,7.025709688E0,-1.657539749E0,1.115092896E-1,7.219450738E0
1.174188167E1,5.967545503E0,-1.272276650E0,2.470898849E-1,6.106663624E0
1.175183167E1,5.198826680E0,-9.850526467E-1,4.863282017E-1,5.313628015E0
1.176178167E1,4.727241721E0,-6.574813932E-1,6.624509418E-1,4.818499488E0
1.177173267E1,4.405481138E0,-4.236924621E-1,6.347754854E-1,4.471098218E0
1.178168267E1,3.839336761E0,-3.750877744E-1,5.324135435E-1,3.894183070E0
1.179163267E1,3.102023917E0,-2.582466647E-1,4.142341523E-1,3.140196436E0
1.180158267E1,2.814736179E0,-2.100963056E-1,6.095055004E-1,2.887624832E0
1.181153267E1,3.148205227E0,-2.290860155E-1,8.875271561E-1,3.278929857E0
1.182148367E1,3.480901272E0,-2.328916758E-1,9.250832375E-1,3.609250780E0
1.183143367E1,3.174215981E0,-3.389856032E-1,8.111286058E-1,3.293704290E0
1.184138367E1,2.373939734E0,-2.522292951E-1,5.160080105E-1,2.442431933E0
1.185133367E1,1.562882976E0,-9.165978312E-2,3.189065570E-1,1.597719032E0
1.186128367E1,7.629359275E-1,2.347423196E-2,2.550022640E-1,8.047660677E-1
1.187123367E1,2.126679111E-1,8.727671027E-2,3.273510327E-1,4.000044539E-1
1.188118467E1,-3.198777795E-2,1.628475872E-1,4.618819432E-1,4.907927098E-1
1.189113467E1,-1.477807742E-1,1.534671915E-1,4.007226256E-1,4.538391331E-1
1.190108467E1,-3.263857305E-1,7.123925954E-2,2.771146794E-1,4.340451851E-1
1.191103467E1,-3.323007739E-1,-4.789454341E-3,1.618794344E-1,3.696642997E-1
1.192098467E1,-1.283305961E-1,-1.062898090E-1,1.948881362E-1,2.564130477E-1
1.193093567E1,1.701674241E-1,-2.200280938E-1,3.680049690E-1,4.612992212E-1
1.194088567E1,1.811028868E-1,-2.195571005E-1,5.547270300E-1,6.234786715E-1
1.195083567E1,-2.486972845E-1,-1.649046376E-1,5.572384091E-1,6.321064178E-1
1.196078567E1,-7.303084642E-1,-1.336290506E-1,3.359085059E-1,8.148875385E-1
1.197073567E1,-1.035740113E0,-1.124457577E-1,1.379129400E-1,1.050914653E0
1.198068667E1,-1.146765874E0,-1.329463881E-1,2.081082523E-2,1.154634056E0
1.199063667E1,-1.020520395E0,-2.091601664E-1,8.718198538E-3,1.041770540E0
1.200058667E1,-7.148115885E-1,-2.638734403E-1,-3.641711690E-2,7.628309157E-1
1.201053667E1,-5.958283514E-1,-3.157835591E-1,-1.165619782E-1,6.843371795E-1
1.202048667E1,-6.920945710E-1,-2.588957056E-1,-2.902247947E-1,7.938843197E-1
1.203043767E1,-8.244796264E-1,-1.983974889E-1,-3.726974326E-1,9.262999483E-1
1.204038767E1,-7.530751830E-1,-2.039742708E-1,-2.053910512E-1,8.067919300E-1
1.205033767E1,-6.324371839E-1,-1.729419279E-1,-5.604907036E-2,6.580480227E-1
1.206028767E1,-5.558427519E-1,-1.282478580E-1,-6.685194746E-3,5.704852055E-1
1.207023767E1,-3.911418897E-1,-1.825550428E-1,-8.405723333E-2,4.397544087E-1
1.208018867E1,-2.422548223E-1,-3.056588128E-1,-2.138372811E-1,4.447933133E-1
1.209013867E1,-1.760684341E-1,-2.558355653E-1,-4.186336704E-1,5.212543333E-1
1.210008867E1,-2.902008212E-1,-2.526678362E-1,-4.816328144E-1,6.164638838E-1
1.211003867E1,-5.601001096E-1,-2.571275076E-1,-4.883307999E-1,7.863165127E-1
1.211998867E1,-8.161356497E-1,-1.490443575E-1,-4.711973252E-1,9.541061463E-1
1.212993375E1,-8.067339116E-1,-7.557233870E-2,-2.686140704E-1,8.536300729E-1
1.213988475E1,-3.526467454E-1,-9.448691189E-2,1.136435598E-1,3.823641749E-1
1.214983475E1,5.143912554E-2,-6.289499044E-2,3.652784854E-1,3.742060066E-1
1.215978475E1,2.110277671E-1,1.750685602E-2,4.084794688E-1,4.601029069E-1
1.216973475E1,2.050536668E-1,4.088168532E-2,3.659006292E-1,4.214280353E-1
1.217968475E1,-3.696200430E-2,6.090430588E-2,1.878552514E-1,2.009107258E-1
1.218963575E1,-3.200941265E-1,-3.756982237E-2,4.407981992E-2,3.252918257E-1
1.219958575E1,-5.516339260E-1,-9.868228912E-2,-1.222080131E-1,5.735616628E-1
1.220953575E1,-5.957576001E-1,-9.945499867E-2,-2.019756925E-1,6.368772214E-1
1.221948575E1,-2.617137712E-1,-9.422437191E-2,-5.730965696E-2,2.840012801E-1
1.222943575E1,2.869123471E-1,-5.053046823E-2,1.648781059E-1,3.347488804E-1
1.223938675E1,5.458364117E-1,-4.614330232E-3,1.993760204E-1,5.811277639E-1
1.224933675E1,4.343808800E-1,4.446573615E-2,4.007096887E-2,4.384856134E-1
1.225928675E1,1.165420246E-1,1.280689332E-1,-1.195848425E-1,2.104381850E-1
1.226923675E1,-1.208221865E-1,1.385673165E-1,-2.342914993E-1,2.978110283E-1
1.227918675E1,-2.164072055E-1,1.039930227E-1,-1.745061312E-1,2.968147860E-1
1.228913675E1,-2.105558968E-1,1.161818361E-1,-5.742959797E-2,2.472451484E-1
1.229908775E1,-7.211137176E-2,1.204929882E-1,-3.888449572E-2,1.457072893E-1
1.230903775E1,6.179045141E-2,8.987404346E-2,-7.174533606E-3,1.093017727E-1
1.231898775E1,2.493539268E-1,9.939711124E-2,4.135976829E-2,2.716022772E-1
1.232893775E1,4.925291008E-1,5.657385796E-2,1.111439482E-1,5.080733153E-1
1.233888775E1,7.013185537E-1,-2.283542365E-2,1.991427896E-1,7.294018241E-1
1.234883875E1,7.257102138E-1,-5.695421934E-2,2.393610352E-1,7.662850662E-1
1.235878875E1,6.412781739E-1,-4.549309194E-2,2.423343444E-1,6.870467613E-1
1.236873875E1,5.418468565E-1,-3.395887434E-2,1.347216759E-1,5.593756796E-1
1.237868875E1,4.256620967E-1,-5.940858811E-2,-3.564111829E-2,4.312631334E-1
1.238863875E1,3.064408779E-1,-8.616573930E-2,-2.348323667E-1,3.955714686E-1
1.239858975E1,2.372788417E-1,-5.742111951E-2,-3.291274899E-1,4.097845023E-1
1.240853975E1,4.042952013E-1,-5.136662006E-2,-2.365772124E-1,4.712344606E-1
1.241848975E1,7.077399659E-1,-8.418645680E-2,-5.492355444E-2,7.148425111E-1
1.242843975E1,1.081413299E0,-2.223646411E-1,1.171875572E-1,1.110240370E0
1.243838975E1,1.371393680E0,-2.896517676E-1,1.626665793E-1,1.411056054E0
1.244834075E1,1.429681649E0,-2.163194972E-1,6.483619295E-2,1.447407156E0
1.245829075E1,1.359250183E0,-1.963503787E-1,-2.482764311E-3,1.373361094E0
1.246824075E1,1.210398198E0,-1.713772130E-1,1.922911685E-2,1.222621653E0
1.247819075E1,1.132047263E0,-1.193329006E-1,-1.071275689E-2,1.138369935E0
1.248814075E1,1.212178091E0,-1.848474437E-1,1.930048943E-2,1.226342860E0
1.249809175E1,1.383051859E0,-2.760327253E-1,-4.556621868E-2,1.411064417E0
1.250804175E1,1.516124547E0,-3.413554797E-1,-1.445467158E-1,1.560785365E0
1.251799175E1,1.738912818E0,-3.909097552E-1,-1.878505737E-1,1.792181929E0
1.252794175E1,1.878717406E0,-4.196096438E-1,-2.255218087E-1,1.938172188E0
1.253789175E1,1.881942730E0,-4.354824954E-1,-1.729384196E-1,1.939397107E0
1.254784175E1,1.848747502E0,-4.442123884E-1,-1.407779295E-2,1.901417933E0
1.255779275E1,1.934972883E0,-4.742144519E-1,2.363549451E-1,2.006206137E0
1.256774275E1,1.965304145E0,-4.687449664E-1,4.229454438E-1,2.064225054E0
1.257769275E1,1.873993440E0,-5.253407514E-1,5.101660939E-1,2.011990001E0
1.258764275E1,1.747921624E0,-5.134077537E-1,4.605840075E-1,1.879083594E0
1.259759275E1,1.617164433E0,-4.774731052E-1,3.909401608E-1,1.730905999E0
1.260754375E1,1.744591634E0,-5.653748828E-1,3.374697125E-1,1.864707627E0
1.261749375E1,2.070178050E0,-7.540727180E-1,2.363117123E-1,2.215875910E0
1.262744375E1,2.161779361E0,-1.001912216E0,1.343403552E-1,2.386454573E0
1.263739375E1,1.993122858E0,-1.127978185E0,1.179090580E-2,2.290199236E0
1.264734375E1,1.911169453E0,-1.204126475E0,1.814040184E-2,2.258941858E0
1.265729475E1,2.151201164E0,-1.182207018E0,1.990088153E-1,2.462698598E0
1.266724475E1,2.396275513E0,-1.227104863E0,3.508364475E-1,2.714960201E0
1.267719475E1,2.523029700E0,-1.388614315E0,4.873209492E-1,2.920857800E0
1.268714475E1,2.409635231E0,-1.404856126E0,4.807264960E-1,2.830381714E0
1.269709475E1,2.050299856E0,-1.426120110E0,4.302755499E-1,2.534301702E0
1.270704575E1,1.803418132E0,-1.623086493E0,4.626960218E-1,2.469982658E0
1.271699575E1,1.852366928E0,-1.804435548E0,4.364829906E-1,2.622549958E0
1.272694575E1,1.910267812E0,-2.014520743E0,3.280755758E-1,2.795541186E0
1.273689575E1,1.895528151E0,-2.090957301E0,5.099742321E-1,2.867961492E0
1.274684575E1,2.016950846E0,-2.042888510E0,4.838874277E-1,2.911293737E0
1.275679675E1,2.110443732E0,-2.171936560E0,6.057890102E-1,3.088407597E0
1.276674675E1,2.130224862E0,-2.337840194E0,8.140621539E-1,3.265892210E0
1.277669675E1,2.050894518E0,-2.342994515E0,9.672171041E-1,3.260567519E0
1.278664675E1,2.076994150E0,-2.314351929E0,1.122723877E0,3.306151608E0
1.279659675E1,2.564268942E0,-2.475369045E0,1.305416622E0,3.795660638E0
1.280654675E1,3.055154976E0,-2.819172462E0,1.330233375E0,4.364771028E0
1.281649775E1,3.232678782E0,-3.217817498E0,1.205020002E0,4.717693797E0
1.282644775E1,3.022335139E0,-3.480716500E0,1.070450939E0,4.732416112E0
1.283639775E1,2.838032656E0,-3.559499545E0,8.938625412E-1,4.639337949E0
1.284634775E1,2.825723097E0,-3.951249545E0,8.473783462E-1,4.931037827E0
1.285629775E1,2.937709556E0,-4.249796682E0,1.035040274E0,5.268986396E0
1.286624875E1,3.303007337E0,-4.406420785E0,1.042776067E0,5.604800044E0
1.287619875E1,3.361637954E0,-4.662104908E0,8.776320592E-1,5.814298748E0
1.288614875E1,3.116363921E0,-4.966155444E0,7.979635267E-1,5.917023726E0
1.289609875E1,2.675702255E0,-5.059268260E0,6.576049156E-1,5.760904626E0
1.290604875E1,2.095274592E0,-5.104659610E0,7.141928069E-1,5.563973106E0
1.291599975E1,1.624475499E0,-4.938667098E0,9.341802625E-1,5.282238741E0
1.292594975E1,1.379934416E0,-4.957591027E0,1.194735700E0,5.282927330E0
1.293589975E1,1.180178180E0,-5.171903760E0,1.299501725E0,5.461695137E0
1.294584975E1,8.491101453E-1,-5.276186512E0,1.442215887E0,5.535261404E0
1.295579975E1,5.283508980E-1,-5.134029005E0,1.424892633E0,5.354225202E0
1.296574975E1,4.495629562E-1,-4.925174063E0,1.345198885E0,5.125329887E0
1.297570075E1,5.749730508E-1,-4.756818691E0,1.241679633E0,4.949715788E0
1.298565075E1,6.500470240E-1,-4.761479507E0,1.106843863E0,4.931465458E0
1.299560075E1,4.631451245E-1,-4.774077918E0,8.075868742E-1,4.864002460E0
1.300555075E1,-5.553586755E-2,-4.877785889E0,4.706925277E-1,4.900758193E0
1.301550075E1,-3.155101287E-1,-4.871021830E0,3.610057788E-1,4.894560806E0
1.302545175E1,-5.450429446E-1,-4.244188617E0,2.001383512E-1,4.283720835E0
1.303540175E1,-7.446882293E-1,-3.671417592E0,2.927221406E-1,3.757599492E0
1.304535175E1,-7.666749296E-1,-3.521580352E0,8.025829732E-1,3.692351290E0
1.305530175E1,-1.429042841E0,-3.071768085E0,1.065006012E0,3.551360361E0
1.306525175E1,-2.508699344E0,-2.536067821E0,9.578956190E-1,3.693612921E0
1.307520275E1,-3.511786558E0,-2.089782010E0,5.514439646E-1,4.123581468E0
1.308515275E1,-4.512249249E0,-1.792883204E0,8.577518184E-2,4.856148767E0
1.309510275E1,-5.268176411E0,-1.353041609E0,1.135096586E-1,5.440339028E0
1.310505275E1,-5.036111532E0,-1.022838231E0,-1.909513521E-1,5.142477985E0
1.311500275E1,-4.969752651E0,-1.006421589E0,-3.158197205E-2,5.070732023E0
1.312495287E1,-4.968679687E0,-6.566464108E-1,1.338199621E-1,5.013668330E0
1.313490287E1,-5.265006051E0,-2.156833202E-1,3.472883570E-1,5.280853834E0
1.314485288E1,-5.814610409E0,-3.563117802E-2,6.580737162E-1,5.851839437E0
1.315480287E1,-5.906756680E0,-5.472409129E-3,9.421770608E-1,5.981429765E0
1.316475287E1,-5.695061746E0,6.698044002E-2,1.130255749E0,5.806521568E0
1.317470287E1,-5.636289042E0,3.513556802E-1,1.208539442E0,5.775099355E0
1.318465387E1,-5.821637592E0,6.842780131E-1,1.200083710E0,5.983301895E0
1.319460387E1,-6.209655899E0,9.128684771E-1,1.090942506E0,6.370503182E0
1.320455387E1,-6.496344298E0,9.960807878E-1,1.364963497E0,6.712510076E0
1.321450388E1,-6.393779458E0,1.003052423E0,1.712078776E0,6.694605564E0
1.322445387E1,-6.148136759E0,8.648353547E-1,1.896990539E0,6.492002688E0
1.323440487E1,-6.081580242E0,8.817805856E-1,1.894192647E0,6.430483732E0
1.324435488E1,-6.170519900E0,1.114442466E0,1.640801218E0,6.481475641E0
1.325430487E1,-6.313435206E0,1.154365500E0,1.413098946E0,6.571824134E0
1.326425487E1,-6.258867821E0,1.132945980E0,1.323764015E0,6.496871875E0
1.327420487E1,-6.018180052E0,1.066724508E0,1.315827590E0,6.252023237E0
1.328415587E1,-6.019709099E0,9.897120005E-1,1.256718233E0,6.228624904E0
1.329410587E1,-6.292164205E0,8.585191923E-1,1.118802735E0,6.448263731E0
1.330405587E1,-6.545293095E0,7.690480220E-1,8.475002606E-1,6.644588268E0
1.331400587E1,-6.664380997E0,7.661285073E-1,4.861304927E-1,6.725864243E0
1.332395588E1,-6.275978528E0,6.319407552E-1,2.769855291E-1,6.313792567E0
1.333390587E1,-5.265974935E0,1.104322690E-1,4.475581652E-1,5.286113469E0
1.334385687E1,-4.512827539E0,-8.855081856E-2,5.163102385E-1,4.543129968E0
1.335380688E1,-4.630934570E0,-3.610070944E-2,3.993513805E-1,4.648262017E0
1.336375687E1,-5.161764103E0,-1.272968084E-1,2.976999483E-1,5.171908583E0
1.337370687E1,-5.592492228E0,-3.323200697E-1,1.987299762E-1,5.605880800E0
1.338365687E1,-5.972425005E0,-4.320981270E-1,5.140696585E-2,5.988256166E0
1.339360787E1,-6.248657413E0,-3.502470481E-1,-1.120403629E-1,6.259468468E0
1.340355787E1,-6.017959027E0,-3.371826142E-1,2.971258979E-2,6.027470930E0
1.341350787E1,-4.723505350E0,-9.695689273E-1,6.214905383E-1,4.861873835E0
1.342345788E1,-3.386731572E0,-1.467261704E0,1.028097217E0,3.831421608E0
1.343340787E1,-3.061626382E0,-1.425452358E0,1.023377929E0,3.528848667E0
1.344335887E1,-3.489964457E0,-1.373523236E0,8.589770293E-1,3.847630378E0
1.345330888E1,-4.181022901E0,-1.587224935E0,6.591753316E-1,4.520480905E0
1.346325887E1,-4.966064812E0,-1.669207576E0,4.132665843E-1,5.255363253E0
1.347320887E1,-5.426259395E0,-1.586720320E0,1.851017976E-1,5.656521464E0
1.348315887E1,-5.323955925E0,-1.828626648E0,2.170398742E-1,5.633425993E0
1.349310987E1,-4.462783851E0,-2.295179493E0,5.239725029E-1,5.045674959E0
1.350305987E1,-3.024671979E0,-2.819436756E0,9.096104085E-1,4.233822775E0
1.351300987E1,-1.568803867E0,-3.298864000E0,1.297063290E0,3.876341373E0
1.352295988E1,-6.547042581E-1,-3.451821315E0,1.472075132E0,3.809293012E0
1.353290987E1,-6.610978230E-1,-3.638022974E0,1.513570483E0,3.995391982E0
1.354285987E1,-1.531755031E0,-3.560857853E0,1.443318526E0,4.136320889E0
1.355281088E1,-2.664546060E0,-3.062904291E0,1.255277917E0,4.249342425E0
1.356276087E1,-3.484380950E0,-2.822246928E0,1.092142940E0,4.615058453E0
1.357271087E1,-3.455377591E0,-3.121419132E0,1.306138169E0,4.836206014E0
1.358266087E1,-2.293568586E0,-3.671031091E0,1.809548353E0,4.691629926E0
1.359261087E1,-6.536190149E-1,-4.136437297E0,2.297331269E0,4.776511518E0
1.360256187E1,7.508742911E-1,-4.473641546E0,2.409204876E0,5.136297209E0
1.361251187E1,9.002493086E-1,-4.577896231E0,1.885304879E0,5.032092727E0
1.362246187E1,-4.490670392E-1,-4.348861964E0,8.049570159E-1,4.445471559E0
1.363241188E1,-2.194129374E0,-4.175435886E0,-2.548461434E-1,4.723707771E0
1.364236187E1,-3.202786938E0,-4.239940615E0,-9.338681674E-1,5.395095027E0
1.365231287E1,-3.421062621E0,-4.367281862E0,-1.012539019E0,5.639331130E0
1.366226288E1,-3.002740242E0,-4.458389668E0,-6.723351482E-1,5.417169182E0
1.367221287E1,-1.548031048E0,-4.580066718E0,2.293405887E-1,4.840042187E0
1.368216287E1,6.549922335E-1,-4.908255730E0,1.031085144E0,5.057976444E0
1.369211287E1,1.811591955E0,-5.169503478E0,1.135567871E0,5.594206468E0
1.370206387E1,1.400674782E0,-5.048638607E0,6.423154700E-1,5.278561432E0
1.371201387E1,8.829295635E-2,-4.533959668E0,-3.945576869E-2,4.534990924E0
1.372196387E1,-1.302179604E0,-4.221471600E0,-5.088142542E-1,4.446952455E0
1.373191388E1,-2.575029573E0,-3.927716841E0,-8.032916558E-1,4.764768029E0
1.374186387E1,-3.297991596E0,-3.641564632E0,-7.969064963E-1,4.977228295E0
1.375181487E1,-8.874675876E-1,-4.225440690E0,5.264845033E-1,4.349613049E0
1.376176488E1,3.626674697E0,-4.444365122E0,1.829646403E0,6.021026213E0
1.377171487E1,6.441686280E0,-4.303775838E0,2.016544465E0,8.005264529E0
1.378166487E1,6.918774054E0,-3.986794184E0,1.463159298E0,8.118176976E0
1.379161487E1,5.659893082E0,-3.419432418E0,4.134180272E-1,6.625543165E0
1.380156587E1,3.829511100E0,-3.012542222E0,-4.546256948E-1,4.893592793E0
1.381151587E1,2.268829016E0,-2.584059429E0,-7.907786143E-1,3.528495296E0
1.382146587E1,1.342886750E0,-2.096145535E0,-4.255053914E-1,2.525514950E0
1.383141587E1,3.036946746E0,-2.388623847E0,1.183319743E0,4.040892851E0
1.384136587E1,7.340406834E0,-2.316637605E0,2.416648382E0,8.067748862E0
1.385131687E1,9.978844199E0,-2.406742614E0,2.408213189E0,1.054368210E1
1.386126687E1,1.000926609E1,-2.520477390E0,1.636188934E0,1.045061377E1
1.387121688E1,8.744774133E0,-2.159609167E0,3.972048676E-1,9.016249669E0
1.388116687E1,7.021661076E0,-1.891621918E0,-4.394638646E-1,7.285265008E0
1.389111687E1,5.539256837E0,-1.716509504E0,-5.296583354E-1,5.823255888E0
1.390106788E1,4.663046309E0,-1.255919649E0,-5.246648133E-2,4.829501815E0
1.391101787E1,4.117678260E0,-7.689421874E-1,4.389627582E-1,4.211797080E0
1.392096787E1,3.456762212E0,-4.249481517E-1,7.644573730E-1,3.565695023E0
1.393091787E1,2.933859165E0,-2.914755142E-1,9.244102961E-1,3.089825556E0
1.394086788E1,3.296940851E0,-3.162948981E-1,1.016354839E0,3.464511307E0
1.395081887E1,4.191307569E0,-5.190889084E-1,1.097448118E0,4.363588523E0
1.396076887E1,4.445889491E0,-7.524144477E-1,8.900041097E-1,4.596103587E0
1.397071888E1,3.531454545E0,-6.860412410E-1,5.363908195E-1,3.637243310E0
1.398066887E1,2.313441517E0,-4.272876227E-1,2.981091803E-1,2.371382603E0
1.399061887E1,1.408363870E0,-3.868058869E-1,3.185370129E-1,1.494848960E0
1.400056988E1,8.816151094E-1,-3.561463040E-1,3.111683518E-1,1.000455463E0
1.401051987E1,6.015223700E-1,-2.030498260E-1,1.035916205E-1,6.432648112E-1
1.402046987E1,3.924809021E-1,-1.151690984E-1,-2.001800126E-1,4.553868873E-1
1.403041987E1,3.778973615E-1,-1.650101799E-1,-2.748817009E-1,4.955751454E-1
1.404036988E1,7.289454782E-1,-2.075837570E-1,-1.395356154E-1,7.706638141E-1
1.405032087E1,9.862574655E-1,-2.344435269E-1,1.733915788E-1,1.028461081E0
1.406027087E1,5.708513850E-1,-1.075963694E-1,7.320538580E-2,5.854974901E-1
1.407022088E1,-2.066183817E-1,-6.983388126E-2,-1.012410216E-1,2.404530538E-1
1.408017087E1,-9.077609342E-1,-8.401571810E-2,-2.032170564E-1,9.340159135E-1
1.409012087E1,-1.386333316E0,-1.559978664E-2,-2.601724452E-1,1.410621536E0
1.410007188E1,-1.613788835E0,3.906173944E-2,-2.850026464E-1,1.639227481E0
1.411002187E1,-1.727674470E0,3.467457354E-2,-3.076214308E-1,1.755190116E0
1.411997187E1,-1.755631177E0,7.740544081E-3,-3.135388130E-1,1.783425730E0
1.412992254E1,-1.598929306E0,-7.131088793E-2,-3.194526869E-1,1.632087678E0
1.413987254E1,-8.154018241E-1,-2.134414977E-1,-8.176103175E-2,8.468307234E-1
1.414982354E1,-3.249122322E-2,-2.990792334E-1,2.417724270E-1,3.859507402E-1
1.415977354E1,-1.757211095E-1,-1.680495626E-1,1.655609876E-1,2.941581283E-1
1.416972354E1,-8.633367133E-1,-2.817948639E-2,-1.946023536E-1,8.854458990E-1
1.417967354E1,-1.497007660E0,-1.831722164E-1,-3.624297220E-1,1.551109054E0
1.418962354E1,-1.782713141E0,-1.936229450E-1,-4.450298291E-1,1.847595069E0
1.419957454E1,-1.667004345E0,-1.389959174E-1,-4.814579827E-1,1.740696740E0
1.420952454E1,-1.268882049E0,-2.070896673E-1,-5.237082088E-1,1.388242801E0
1.421947454E1,-8.163367939E-1,-2.564553702E-1,-6.394094038E-1,1.068185145E0
1.422942454E1,-2.731211042E-1,-3.475608373E-1,-5.058028650E-1,6.717367129E-1
1.423937454E1,1.418885350E-1,-3.053456944E-1,-3.705187601E-1,5.006520758E-1
1.424932554E1,1.247491765E-1,-2.033234757E-1,-3.418907923E-1,4.168838047E-1
1.425927554E1,-1.615954059E-1,-2.225982374E-1,-2.890260973E-1,3.989976634E-1
1.426922554E1,-3.319680673E-1,-3.053568041E-1,-3.891965210E-2,4.527254299E-1
1.427917554E1,-3.089271140E-1,-1.663310659E-1,2.350545609E-1,4.223181642E-1
1.428912554E1,-2.481762975E-1,-3.215676248E-2,2.555204004E-1,3.576537530E-1
1.429907654E1,-2.131374425E-1,-2.216813940E-1,1.313220316E-1,3.343885252E-1
1.430902654E1,-1.598985440E-1,-3.311401016E-1,-1.096376141E-1,3.837208851E-1
1.431897654E1,9.805137455E-2,-2.954562986E-1,-1.017912720E-1,3.275209298E-1
1.432892654E1,3.262945139E-1,-1.267214423E-1,4.543286562E-2,3.529739070E-1
1.433887654E1,3.389052039E-1,2.398820221E-2,-3.018858969E-2,3.410916622E-1
1.434882754E1,2.166791010E-1,7.506772399E-2,-2.087122697E-1,3.100738743E-1
1.435877754E1,4.072609091E-1,-3.150596738E-2,-8.039450090E-2,4.163140039E-1
1.436872754E1,7.098081261E-1,-1.097569156E-1,1.680133464E-1,7.376331344E-1
1.437867754E1,6.002991325E-1,-6.045085430E-2,2.004647720E-1,6.357668433E-1
1.438862754E1,3.982123429E-1,-5.539593637E-2,2.008939942E-1,4.494442976E-1
1.439857854E1,4.268613607E-1,-1.195492476E-1,2.317678410E-1,5.002189280E-1
1.440852854E1,5.678494245E-1,-1.346713167E-1,2.608811277E-1,6.392560483E-1
1.441847854E1,6.176992768E-1,-1.896252036E-1,3.156338704E-1,7.191208901E-1
1.442842854E1,4.664113426E-1,-1.530491155E-1,3.295859116E-1,5.912617402E-1
1.443837854E1,2.518179435E-1,-6.268215179E-4,2.080521190E-1,3.266471396E-1
1.444832954E1,1.016199303E-1,9.266784310E-2,1.927713711E-2,1.388724141E-1
1.445827954E1,1.317354298E-1,5.415515721E-2,-8.997344613E-2,1.684702511E-1
1.446822954E1,2.621148902E-1,2.867474556E-2,-1.606832403E-1,3.087807643E-1
1.447817954E1,3.746603429E-1,3.208191812E-2,-2.320934943E-1,4.418902716E-1
1.448813054E1,3.786060441E-1,-2.219486117E-2,-2.544053364E-1,4.566806583E-1
1.449808054E1,2.459561098E-1,-1.338661551E-1,-1.680799864E-1,3.265967502E-1
1.450803054E1,-4.365297318E-2,-2.113978958E-1,-5.961704135E-2,2.239393758E-1
1.451798054E1,-2.966333431E-1,-4.813077092E-2,1.770712316E-2,3.010339741E-1
1.452793054E1,-3.626291120E-1,1.110912502E-2,4.467446348E-2,3.655394551E-1
1.453788154E1,-2.762511188E-1,1.311705887E-2,1.027068911E-1,2.950177000E-1
1.454783154E1,-1.080214620E-2,1.127840191E-1,2.373618722E-2,1.157597854E-1
1.455778154E1,1.544992250E-1,9.322449803E-2,-9.923949223E-2,2.059351703E-1
1.456773154E1,2.603472769E-1,-3.182639480E-3,-1.695809484E-1,3.107225963E-1
1.457768154E1,3.132300800E-1,-3.534758806E-2,-2.063148747E-1,3.767338086E-1
1.458763254E1,2.668417794E-1,-2.686971009E-2,-2.703337365E-1,3.807976440E-1
1.459758254E1,3.447307849E-1,-1.386146790E-1,-1.681483440E-1,4.078323293E-1
1.460753254E1,3.977609378E-1,-1.866396153E-1,2.624054968E-2,4.401552863E-1
1.461748254E1,2.179777676E-1,-1.152895510E-2,-9.782355241E-3,2.185015296E-1
1.462743254E1,-2.638731480E-2,1.600499868E-2,-1.014912915E-1,1.060798408E-1
1.463738354E1,-2.162013835E-1,-6.928131938E-2,-1.555008165E-1,2.751789297E-1
1.464733354E1,-2.384500390E-1,-1.466300422E-1,-8.987406174E-2,2.940002336E-1
1.465728354E1,-1.967260623E-1,-6.734764516E-2,-4.686835706E-2,2.131513354E-1
1.466723354E1,-1.740388656E-1,6.658809185E-3,-7.785680931E-2,1.907761757E-1
1.467718354E1,-1.045838839E-1,-6.520581007E-2,-1.276780468E-1,1.774577980E-1
1.468713454E1,8.087985635E-2,-1.832388747E-1,-8.733514588E-2,2.185073547E-1
1.469708454E1,2.770872706E-1,-2.055167663E-1,-4.045103788E-2,3.473482161E-1
1.470703454E1,1.793574929E-1,-1.993806982E-1,-9.545754969E-2,2.846645691E-1
1.471698454E1,-7.215873420E-2,-2.715546352E-1,-1.358583015E-1,3.120997932E-1
1.472693554E1,-2.415584189E-1,-2.694461292E-1,-1.060351811E-1,3.770877164E-1
1.473688554E1,-3.223920822E-1,-1.617222905E-1,-1.199965962E-1,3.801183198E-1
1.474683554E1,-3.166594720E-1,-1.379247075E-1,-2.057521898E-2,3.460054707E-1
1.475678554E1,-1.810777438E-1,-1.074186140E-1,8.191243809E-2,2.259149297E-1
1.476673554E1,1.366669714E-2,-1.050884986E-1,-6.314813834E-2,1.233614953E-1
1.477668654E1,1.089067304E-1,-1.970926827E-1,-1.754906927E-1,2.854876262E-1
1.478663654E1,1.457061821E-1,-2.052033556E-1,-2.291530027E-1,3.403671654E-1
1.479658654E1,1.616246420E-1,-2.016903484E-1,-2.229870772E-1,3.413572295E-1
1.480653654E1,1.373107499E-1,-2.539013064E-1,-1.182751028E-1,3.119440901E-1
1.481648654E1,2.822743356E-2,-2.182993644E-1,-2.502434710E-2,2.215346891E-1
1.482643754E1,-8.726560056E-2,-1.667374474E-1,8.764428087E-3,1.883971247E-1
1.483638754E1,-6.737278819E-2,-1.833552343E-1,6.746521074E-2,2.066634684E-1
1.484633754E1,1.601406187E-1,-1.488695258E-1,9.565171380E-2,2.386554081E-1
1.485628754E1,3.395109755E-1,-9.073124528E-2,4.608481189E-2,3.544342975E-1
1.486623754E1,3.690651423E-1,-1.243322700E-1,-1.728550237E-2,3.898286562E-1
1.487618854E1,2.266608828E-1,-1.950099045E-1,-9.071019530E-2,3.124617708E-1
1.488613854E1,4.353895247E-2,-2.038824695E-1,-1.533601874E-1,2.588108360E-1
1.489608854E1,-3.424948096E-2,-1.864098197E-1,-1.093341802E-1,2.188049606E-1
1.490603854E1,-8.888703346E-2,-2.012611628E-1,-1.598572114E-2,2.205957924E-1
1.491598954E1,-1.653417170E-1,-1.283469683E-1,7.555655122E-2,2.225300431E-1
1.492593954E1,-1.804637861E-1,-1.889352322E-2,1.406600716E-1,2.295852762E-1
1.493588954E1,-5.013812006E-2,2.694396973E-3,1.756047499E-1,1.826420517E-1
1.494583954E1,1.219811046E-1,-5.860254943E-2,1.659901549E-1,2.141643766E-1
1.495578954E1,2.387359679E-1,-6.146768510E-2,9.872323791E-2,2.655549216E-1
1.496574054E1,2.410450333E-1,-1.012614959E-1,-3.408223232E-2,2.636630373E-1
1.497569054E1,1.136593473E-1,-1.928277236E-1,-1.111672640E-1,2.499182643E-1
1.498564054E1,-8.933142185E-2,-1.903040653E-1,-8.116695464E-2,2.253526453E-1
1.499559054E1,-3.230522329E-1,-7.219030917E-2,-1.308721980E-2,3.312785251E-1
1.500554054E1,-4.964835727E-1,3.579782367E-2,5.508605221E-2,5.008112372E-1
1.501549154E1,-3.841842878E-1,8.905367911E-2,1.923804299E-1,4.387919263E-1
1.502544154E1,6.674713612E-2,9.927051902E-2,2.890980180E-1,3.128697495E-1
1.503539154E1,4.405532008E-1,-2.444720864E-3,2.338529398E-1,4.987788056E-1
1.504534154E1,5.839397925E-1,-1.468767947E-1,4.334246775E-2,6.036862129E-1
1.505529254E1,5.070138234E-1,-2.077474791E-1,-1.489554799E-1,5.678113834E-1
1.506524254E1,4.345814395E-1,-1.807105386E-1,-1.554464740E-1,4.956621153E-1
1.507519254E1,5.630424285E-1,-1.197486377E-1,-5.675543228E-2,5.784269112E-1
1.508514254E1,9.630650693E-1,-5.430543065E-2,7.967649937E-2,9.678800298E-1
1.509509254E1,1.514986678E0,-5.844525933E-2,1.502845520E-1,1.523543872E0
1.510504354E1,2.306334811E0,-2.748700064E-1,2.374343777E-1,2.334760987E0
1.511499354E1,3.210705530E0,-4.850926119E-1,2.167270482E-1,3.254368672E0
1.512494354E1,3.857469562E0,-7.350949949E-1,1.025601534E-1,3.928225383E0
1.513489337E1,4.156831216E0,-9.890389860E-1,-5.265652040E-2,4.273197466E0
1.514484337E1,4.217039410E0,-1.040268196E0,-9.501783907E-2,4.344491650E0
1.515479438E1,4.498090509E0,-1.091136634E0,2.475056219E-1,4.635154411E0
1.516474437E1,4.886662547E0,-1.249740019E0,5.994331598E-1,5.079433145E0
1.517469437E1,4.883550659E0,-1.282418354E0,6.308771467E-1,5.088385780E0
1.518464437E1,4.676778495E0,-1.470663614E0,7.432524455E-1,4.958581729E0
1.519459537E1,4.718850381E0,-1.589889511E0,8.571234620E-1,5.052717903E0
1.520454537E1,5.032258801E0,-1.591628473E0,8.609019327E-1,5.347715585E0
1.521449537E1,5.160214591E0,-1.834226527E0,9.789923000E-1,5.563328815E0
1.522444538E1,5.179005203E0,-2.348600240E0,1.157011877E0,5.803162454E0
1.523439537E1,4.724364890E0,-2.390659263E0,1.237118804E0,5.437401794E0
1.524434637E1,4.229562977E0,-2.269166985E0,1.274876761E0,4.966249343E0
1.525429638E1,3.903887683E0,-2.432488489E0,1.306305545E0,4.781607833E0
1.526424637E1,3.651325389E0,-2.694607472E0,1.436463250E0,4.759885839E0
1.527419637E1,3.529286982E0,-2.879433866E0,1.509024857E0,4.798349926E0
1.528414738E1,3.389356679E0,-3.028146102E0,1.560431385E0,4.805450408E0
1.529409737E1,3.257028927E0,-3.168089268E0,1.583634160E0,4.811748559E0
1.530404737E1,3.005268871E0,-3.309944474E0,1.472093697E0,4.706849611E0
1.531399737E1,2.736810921E0,-3.552467684E0,1.475844394E0,4.721046212E0
1.532394737E1,2.569908582E0,-3.794838865E0,1.593412897E0,4.852236267E0
1.533389837E1,2.468075228E0,-4.027562141E0,1.699152775E0,5.019937479E0
1.534384837E1,2.326662072E0,-4.254604847E0,1.751203812E0,5.155747627E0
1.535379837E1,1.961333885E0,-4.390922740E0,1.704617583E0,5.102230319E0
1.536374838E1,1.537325381E0,-4.444911252E0,1.506138525E0,4.938527981E0
1.537369837E1,1.153293998E0,-4.522600282E0,1.235583179E0,4.828112069E0
1.538364937E1,9.781701815E-1,-4.749010320E0,1.138670404E0,4.980611028E0
1.539359938E1,1.244245683E0,-5.085678379E0,1.238688928E0,5.380206516E0
1.540354937E1,1.537745503E0,-5.389337736E0,1.254534152E0,5.743124446E0
1.541349937E1,1.673043642E0,-5.682138230E0,1.287581153E0,6.061652837E0
1.542345038E1,1.556707147E0,-5.842446663E0,1.357972712E0,6.196903262E0
1.543340037E1,1.098488923E0,-5.808009487E0,1.262468531E0,6.044293085E0
1.544335037E1,6.982493502E-1,-5.854938070E0,1.242014386E0,6.025815438E0
1.545330037E1,3.786593999E-1,-5.705742270E0,8.708142789E-1,5.784219506E0
1.546325038E1,1.012255356E-1,-5.500189835E0,6.733501518E-1,5.542177845E0
1.547320137E1,1.083192314E-1,-5.527652453E0,7.322726901E-1,5.576997220E0
1.548315137E1,1.737404383E-1,-5.835280901E0,7.873755348E-1,5.890725691E0
1.549310138E1,-5.509327901E-2,-6.050516324E0,1.058704029E0,6.142689743E0
1.550305137E1,-3.300326024E-1,-5.828567128E0,1.340228605E0,5.989768693E0
1.551300237E1,-8.256211491E-1,-5.136431041E0,1.216801046E0,5.342768843E0
1.552295238E1,-1.559629731E0,-4.690990153E0,1.498416985E0,5.165567440E0
1.553290237E1,-2.688177289E0,-4.138204910E0,1.599704793E0,5.187493850E0
1.554285237E1,-4.192154245E0,-3.463449672E0,1.039530863E0,5.536268171E0
1.555280237E1,-5.375060590E0,-3.178956318E0,5.453803289E-1,6.268530874E0
1.556275337E1,-5.821919428E0,-2.823519282E0,2.825678658E-1,6.476638909E0
1.557270337E1,-5.597126146E0,-2.525818822E0,3.690564445E-1,6.151730202E0
1.558265337E1,-5.197711616E0,-2.236291015E0,8.087740052E-1,5.715883041E0
1.559260338E1,-5.413976734E0,-1.514870319E0,1.246962007E0,5.758549331E0
1.560255337E1,-6.262974320E0,-4.564587969E-1,1.328428924E0,6.418561005E0
1.561250437E1,-7.072996706E0,2.614290118E-1,1.293376036E0,7.195029472E0
1.562245437E1,-7.398267957E0,6.650664014E-1,5.386291702E-1,7.447603874E0
1.563240438E1,-8.382471880E0,6.286095965E-1,4.938605118E-1,8.420503729E0
1.564235437E1,-8.253643101E0,5.194642997E-1,-5.829560716E-2,8.270179320E0
1.565230537E1,-7.716207384E0,2.655378503E-1,-5.399494715E-1,7.739632561E0
1.566225538E1,-7.396636584E0,2.119147897E-1,-6.255105722E-1,7.426062490E0
1.567220537E1,-7.311053227E0,1.204128814E-1,-6.829290605E-1,7.343867554E0
1.568215537E1,-7.343434523E0,3.574590039E-1,-6.361232686E-1,7.379597573E0
1.569210537E1,-6.903627427E0,4.111498922E-1,-4.914421034E-1,6.933298726E0
1.570205637E1,-6.366426768E0,3.902139366E-1,-3.409979224E-1,6.387482782E0
1.571200637E1,-6.302011501E0,4.063627768E-1,-1.767122126E-1,6.317571280E0
1.572195637E1,-6.393432133E0,4.949059939E-1,-1.680115557E-1,6.414759097E0
1.573190638E1,-6.228594446E0,5.939145577E-1,-1.372481847E-1,6.258351248E0
1.574185737E1,-5.894551202E0,6.585069948E-1,4.444797523E-5,5.931219549E0
1.575180737E1,-5.591503463E0,6.681911534E-1,2.912603366E-1,5.638813969E0
1.576175738E1,-5.246886699E0,8.026338440E-1,5.019963276E-1,5.331607772E0
1.577170737E1,-5.079834672E0,7.904622799E-1,5.395307744E-1,5.169201521E0
1.578165737E1,-4.805371924E0,3.293455911E-1,6.984171653E-1,4.867016990E0
1.579160838E1,-4.428510689E0,-4.856288016E-2,6.768479562E-1,4.480199597E0
1.580155837E1,-4.177534160E0,-4.559237766E-1,6.563008404E-1,4.253279786E0
1.581150837E1,-4.035933308E0,-7.594679439E-1,4.961923814E-1,4.136635843E0
1.582145837E1,-4.442859756E0,-5.925059634E-1,1.061842668E-1,4.483451932E0
1.583140937E1,-4.939655862E0,-3.116916776E-1,-8.524776299E-2,4.950214028E0
1.584135937E1,-5.213816017E0,-2.213095111E-1,1.453033090E-2,5.218531066E0
1.585130937E1,-5.529783179E0,-1.646786427E-1,7.457769077E-2,5.532737378E0
1.586125938E1,-5.225999275E0,-5.690890342E-1,4.445497727E-1,5.275656855E0
1.587120937E1,-3.841360483E0,-1.264193752E0,1.046028216E0,4.177129544E0
1.588116037E1,-3.185345571E0,-1.286247695E0,1.015093009E0,3.582076682E0
1.589111037E1,-3.506293391E0,-9.671101731E-1,7.279478701E-1,3.709353519E0
