"Time (s)","Linear Acceleration x (m/s^2)","Linear Acceleration y (m/s^2)","Linear Acceleration z (m/s^2)","Absolute acceleration (m/s^2)"
6.944583351E-3,1.102591640E-2,1.686273497E-2,-1.004785538E-2,2.251404141E-2
1.689458336E-2,-1.093047888E-2,-3.682286341E-3,-7.951628566E-3,1.400938964E-2
2.684458334E-2,-2.610891881E-2,-2.936209946E-2,-2.202295303E-2,4.504241320E-2
3.679458334E-2,-2.282243643E-2,-3.946934519E-2,-7.652835846E-3,4.623049547E-2
4.674358334E-2,-1.570036788E-2,-5.556120244E-2,-1.065947413E-3,5.774673161E-2
5.669358335E-2,-1.157587444E-2,-6.758834945E-2,-1.588396132E-2,7.038811034E-2
6.664358336E-2,-9.099724791E-3,-7.044082224E-2,5.971176624E-3,7.127670994E-2
7.659358333E-2,-1.685648576E-2,-8.891751207E-2,-9.145045280E-4,9.050580857E-2
8.654358334E-2,-2.303214591E-2,-9.432902793E-2,4.324015975E-3,9.719641130E-2
9.649358335E-2,-4.092579068E-2,-8.269589189E-2,-2.711353898E-3,9.230862538E-2
1.064425833E-1,-2.265235555E-2,7.333166739E-3,-2.486645401E-2,3.442738853E-2
1.163925834E-1,1.858068347E-2,7.157310815E-2,-1.139505386E-2,7.481843931E-2
1.263425833E-1,1.688125420E-2,9.639018972E-2,-1.034664810E-2,9.840273647E-2
1.362925833E-1,4.735020418E-3,1.113829440E-1,-1.483730972E-2,1.124665568E-1
1.462425833E-1,-1.198309646E-2,1.080856534E-1,-6.168812513E-4,1.087496373E-1
1.561915833E-1,-2.869239227E-2,7.238726897E-2,-2.563419342E-3,7.790854383E-2
1.661415834E-1,-4.862628134E-2,3.996721733E-2,-1.274225235E-2,6.422039157E-2
1.760915833E-1,-4.419522477E-2,1.152033046E-2,-1.902859390E-2,4.947750289E-2
1.860415833E-1,-3.450798728E-2,-5.233443019E-3,-1.528520644E-2,3.810285616E-2
1.959915833E-1,-3.539834464E-2,-1.976415764E-2,-6.902638078E-3,4.112555340E-2
2.059405833E-1,-2.301613916E-2,-2.466855316E-2,-5.255477428E-3,3.414528108E-2
2.158905833E-1,-6.723338692E-4,-3.929175886E-2,-6.451817751E-3,3.982361485E-2
2.258405834E-1,9.991173930E-3,-3.268148842E-2,-1.333691418E-2,3.668482686E-2
2.357905833E-1,6.731885676E-3,-5.007029235E-2,-9.744384885E-3,5.145197273E-2
2.457405833E-1,2.396866429E-2,-5.429914489E-2,-9.294734001E-3,6.007733420E-2
2.556895833E-1,1.498105986E-2,-6.019457723E-2,-9.743800163E-3,6.279140805E-2
2.656395833E-1,1.033974564E-2,-5.363332062E-2,-7.946950793E-3,5.519599123E-2
2.755895834E-1,7.287722910E-3,-3.089314720E-2,-1.588103771E-2,3.549232041E-2
2.855395833E-1,7.269080342E-3,9.266215120E-3,1.333165169E-3,1.185240908E-2
2.954895833E-1,2.972838641E-3,2.918666701E-2,-8.995356560E-3,3.068575794E-2
3.054385833E-1,2.244613613E-3,5.598166293E-2,-4.954930544E-3,5.624532168E-2
3.153885833E-1,-1.197715332E-2,7.328602713E-2,-8.398355842E-3,7.473169579E-2
3.253385834E-1,-3.146543887E-2,6.098026486E-2,-9.146799445E-3,6.922666022E-2
3.352885833E-1,-3.547201042E-2,4.513518753E-2,-6.452402472E-3,5.776748370E-2
3.452385833E-1,-4.984753171E-2,2.104774025E-2,-1.243995130E-2,5.552059235E-2
3.551875833E-1,-5.231787069E-2,-2.497126535E-4,-2.111429572E-3,5.236105504E-2
3.651375833E-1,-4.633738420E-2,-1.624505201E-2,-5.553685427E-3,4.941556750E-2
3.750875834E-1,-3.509135211E-2,-2.122613742E-2,-1.004434705E-2,4.222369963E-2
3.850375834E-1,-1.843903011E-2,-1.416780581E-2,-2.082193494E-2,3.121341903E-2
3.949875833E-1,-1.068971977E-2,-1.861298249E-2,-9.445592165E-3,2.345063831E-2
4.049365833E-1,1.931125196E-3,-2.083847616E-2,-1.303812146E-2,2.465692488E-2
4.148865833E-1,2.035393842E-2,-3.197242672E-2,-1.124127209E-2,3.953334134E-2
4.248365833E-1,2.538801651E-2,-2.984400140E-2,-1.361816525E-3,3.920548872E-2
4.347865834E-1,2.061205644E-2,-3.611170723E-2,-4.655553102E-3,4.184001009E-2
4.447365833E-1,1.865882146E-2,-4.567281616E-2,-6.302129030E-3,4.973805972E-2
4.546855833E-1,3.982593399E-3,-3.414645576E-2,-3.907109499E-3,3.459923404E-2
4.646355833E-1,-8.625410534E-3,-1.761293959E-2,-1.498349011E-2,2.468032260E-2
4.745855833E-1,-1.796882717E-2,3.551655889E-3,-6.151855588E-3,1.932196514E-2
4.845355834E-1,-2.578655450E-2,1.967747038E-2,-1.767788708E-2,3.694126318E-2
4.944855833E-1,-3.913267805E-2,4.362794892E-2,-9.745554328E-3,5.941161711E-2
5.044345833E-1,-3.275290896E-2,4.608625999E-2,-1.453617811E-2,5.837805135E-2
5.143845833E-1,-4.452501687E-2,4.762253825E-2,-1.453617811E-2,6.679583632E-2
5.243345833E-1,-5.606936202E-2,4.546552323E-2,-1.423738539E-2,7.357710448E-2
5.342845834E-1,-5.375307891E-2,2.611745894E-2,-7.052911520E-3,6.017689519E-2
5.442345833E-1,-3.971010430E-2,-1.046181997E-2,-2.067516983E-2,4.597613194E-2
5.541835834E-1,-2.480353705E-2,-1.794483989E-2,-1.363979995E-2,3.351532294E-2
5.641335833E-1,-5.860979450E-3,-3.513534555E-2,-1.408769667E-2,3.830544067E-2
5.740835833E-1,3.736133259E-3,-3.122071462E-2,-1.498582900E-2,3.483197932E-2
5.840335833E-1,2.159322836E-2,-3.964688585E-2,-1.259080946E-2,4.686866279E-2
5.939835834E-1,3.367426569E-2,-3.825781810E-2,-9.446761608E-3,5.183491218E-2
6.039325834E-1,3.526786036E-2,-2.490587703E-2,-2.261703014E-3,4.323470811E-2
6.138825833E-1,2.883919850E-2,-7.999840686E-3,-1.004493177E-2,3.156893212E-2
6.238325833E-1,2.103919555E-2,-5.653691087E-3,-7.349950075E-3,2.299203641E-2
6.337825833E-1,8.074529730E-3,1.869966974E-3,-2.007349133E-2,2.171727104E-2
6.437325834E-1,-5.530725969E-3,1.004516474E-2,-1.243995130E-2,1.691882540E-2
6.536815834E-1,-1.681542277E-2,2.773541549E-2,-1.633127332E-2,3.631421490E-2
6.636315833E-1,-2.728454720E-2,3.618186468E-2,5.835521221E-4,4.532013218E-2
6.735815833E-1,-3.817253326E-2,3.557534168E-2,-4.506449103E-3,5.237418558E-2
6.835315833E-1,-4.043114365E-2,2.778327130E-2,-6.602675915E-3,4.949932191E-2
6.934815834E-1,-5.110007839E-2,2.731196744E-2,-1.857777357E-2,6.084648920E-2
7.034305834E-1,-4.060863405E-2,2.226182093E-2,-1.169267714E-2,4.776367374E-2
7.133805833E-1,-3.702331327E-2,4.009511147E-3,-7.654005289E-4,3.724765420E-2
7.233305833E-1,-3.412607274E-2,-1.839949060E-2,-1.393742323E-2,4.119929442E-2
7.332805833E-1,-1.877142604E-2,-3.129007036E-2,-5.254892707E-3,3.686527955E-2
7.432305833E-1,-8.491541273E-3,-3.367732863E-2,-1.857777357E-2,3.938784594E-2
7.531795833E-1,8.323100349E-3,-4.157275312E-2,-1.348894179E-2,4.449178971E-2
7.631295834E-1,1.769124888E-2,-5.710391263E-2,-3.608901501E-3,5.989041071E-2
7.730798333E-1,2.518364261E-2,-4.445161147E-2,-1.708088636E-2,5.386945606E-2
7.830298333E-1,1.213160661E-2,-2.407568433E-2,-1.169092298E-2,2.938523668E-2
7.929798333E-1,-3.963178815E-4,-1.367576718E-2,-3.308354616E-3,1.407582630E-2
8.029288333E-1,2.238665898E-3,4.367255678E-3,-1.273874402E-2,1.365137892E-2
8.128788334E-1,-1.601839703E-2,2.152483421E-2,-4.955515265E-3,2.728487975E-2
8.228288333E-1,-2.124515458E-2,3.060434728E-2,-1.169150770E-2,3.904707438E-2
8.327788333E-1,-3.082521443E-2,3.292973241E-2,-1.603306532E-2,4.787087115E-2
8.427288333E-1,-3.688145434E-2,2.796404391E-2,-1.513610244E-2,4.869631426E-2
8.526778333E-1,-3.474082523E-2,3.325704858E-2,-1.349011123E-2,4.994936756E-2
8.626278334E-1,-3.740697742E-2,3.180642518E-2,-6.754703522E-3,4.956366272E-2
8.725778333E-1,-1.973726730E-2,8.193157401E-3,-1.438941300E-2,2.576320545E-2
8.825278333E-1,-1.587805929E-2,7.834161201E-3,-1.753287613E-2,2.491763620E-2
8.924778333E-1,-9.060742592E-3,-1.665327446E-2,-7.503731847E-3,2.038957082E-2
9.024268333E-1,1.729444221E-3,-2.370075903E-2,-8.252175450E-3,2.515582151E-2
9.123768334E-1,3.104565446E-3,-3.508320255E-2,2.375138998E-3,3.530029339E-2
9.223268333E-1,9.007400454E-3,-3.150208675E-2,-1.184470475E-2,3.483980142E-2
9.322768333E-1,5.353690095E-3,-2.899994211E-2,-1.079688370E-2,3.140432037E-2
9.422258333E-1,-4.648981837E-3,-2.373303749E-2,-9.749647379E-3,2.607538542E-2
9.521758333E-1,-5.027675845E-3,-1.550970983E-2,-1.468995988E-2,2.194592319E-2
9.621258334E-1,-1.246638026E-2,-1.436820771E-3,-7.504901290E-3,1.462185467E-2
9.720758334E-1,-1.871214533E-2,3.773470928E-3,-8.402448893E-3,2.085628474E-2
9.820258333E-1,-2.781224242E-2,8.190626653E-3,-1.094715714E-2,3.099108651E-2
9.919748333E-1,-2.509769311E-2,1.817328786E-2,-5.708636642E-3,3.150795334E-2
1.001924833E0,-2.247430098E-2,1.411522427E-2,-1.918120623E-2,3.274526581E-2
1.011874833E0,-1.909559020E-2,1.859113766E-2,-1.394210100E-2,3.007746905E-2
1.021824833E0,-1.885421896E-2,1.807736155E-2,-1.454027116E-2,2.989468278E-2
1.031774833E0,-1.646422667E-2,9.970411747E-3,-1.663591325E-2,2.544078379E-2
1.041723833E0,-1.224813293E-2,4.508961579E-3,-9.151477218E-3,1.594042127E-2
1.051673833E0,-8.114135480E-3,6.630511859E-3,-1.963027239E-2,2.225197690E-2
1.061623833E0,-8.678119986E-3,-6.879948140E-3,-7.954552174E-3,1.363518805E-2
1.071573833E0,-5.597368239E-3,-5.694445723E-3,-1.603774309E-2,1.791553646E-2
1.081523833E0,-1.044288048E-2,-1.078631303E-2,-1.139797747E-2,1.884972657E-2
1.091472833E0,-1.696041088E-2,-1.198570944E-2,-7.355797291E-3,2.203226093E-2
1.101422833E0,-2.023543865E-2,-1.732655622E-2,-1.678618670E-2,3.148743545E-2
1.111372833E0,-1.321588367E-2,-2.385419819E-2,-1.817314625E-3,2.733102605E-2
1.121322833E0,-8.341847984E-3,-1.536029062E-2,-7.057004571E-3,1.885009998E-2
1.131271833E0,-1.220225285E-2,-9.579529949E-3,-1.364389300E-2,2.065957853E-2
1.141221833E0,-1.729308547E-2,-7.624492839E-3,-1.050042987E-2,2.162042376E-2
1.151171833E0,-1.314271810E-2,-1.004531092E-3,-9.302920103E-3,1.613333333E-2
1.161121833E0,-9.919874445E-3,5.626565488E-3,-9.453193545E-3,1.481300160E-2
1.171071833E0,-8.683128948E-3,7.897425334E-3,-5.261909366E-3,1.286288247E-2
1.181020833E0,-1.599367199E-2,1.638788167E-2,-6.609107852E-3,2.383360057E-2
1.190970833E0,-1.401001321E-2,9.839995997E-3,-1.454319477E-2,2.246353725E-2
1.200920833E0,-1.556135490E-2,8.992414679E-3,-8.106579781E-3,1.971638719E-2
1.210870833E0,-2.564861503E-2,1.051278668E-2,-6.159456968E-3,2.839558147E-2
1.220820833E0,-1.637158941E-2,7.571589241E-3,-1.139914691E-2,2.133772373E-2
1.230769833E0,-1.275313365E-2,1.331289720E-2,-2.621833026E-2,3.205115430E-2
1.240719833E0,-2.032511804E-2,1.418900425E-2,-1.394327044E-2,2.844034204E-2
1.250669833E0,-1.295276125E-2,2.284730994E-4,-1.603832781E-2,2.061684222E-2
1.260619833E0,-7.572358972E-3,-4.841898840E-3,-1.528988421E-2,1.773598500E-2
1.270569833E0,-1.181178218E-2,-1.192069343E-2,-1.719081402E-4,1.678245162E-2
1.280518833E0,-1.034698614E-2,-9.362970551E-3,-1.070040464E-3,1.399536803E-2
1.290468833E0,-1.052619873E-2,-1.193860738E-2,-1.139856219E-2,1.957698715E-2
1.300418833E0,-1.638548112E-2,-2.322855069E-2,-1.050101459E-2,3.030380943E-2
1.310368833E0,-1.502373997E-2,-2.695347602E-2,-6.459419131E-3,3.152660349E-2
1.320317833E0,-1.514648125E-3,-1.677047916E-2,-9.153816104E-3,1.916599800E-2
1.330267833E0,-1.362166673E-2,-1.356715058E-2,-2.262580097E-2,2.969081085E-2
1.340217833E0,-6.627421514E-3,1.760340817E-3,-5.860079527E-3,9.020091340E-3
1.350167833E0,-1.446757611E-2,1.529862306E-2,-1.813513935E-2,2.778924081E-2
1.360117833E0,-9.218898355E-3,1.116126802E-2,-1.648797870E-2,2.194118119E-2
1.370066833E0,-1.679888383E-2,9.807621608E-3,-1.379416645E-2,2.384682301E-2
1.380016833E0,-1.767102346E-2,1.453071005E-2,-1.439233661E-2,2.702861368E-2
1.389966833E0,-2.568133888E-2,9.348852723E-3,-7.058174014E-3,2.822676096E-2
1.399916833E0,-3.156893001E-2,3.118537094E-3,-1.005194843E-2,3.327708345E-2
1.409865833E0,-1.820668094E-2,-3.629707082E-3,-2.053132832E-2,2.768019955E-2
1.419815833E0,-1.904713368E-2,-1.668706725E-2,-1.244872212E-2,2.821740948E-2
1.429765833E0,-2.522459825E-2,-1.627993659E-2,-1.200024068E-2,3.233144705E-2
1.439715833E0,-1.630489918E-2,-1.931356800E-2,-4.066153765E-3,2.560072758E-2
1.449665833E0,-1.224981629E-2,-1.948411941E-2,-8.556815386E-3,2.455418493E-2
1.459614833E0,-4.014734812E-3,-1.707155366E-2,-1.514253438E-2,2.317007525E-2
1.469564833E0,-6.253080941E-3,-1.696128340E-2,-1.334626973E-2,2.247018183E-2
1.479514833E0,4.394417822E-3,-1.216927090E-2,-1.858537495E-2,2.264549015E-2
1.489464833E0,-3.922472144E-3,-1.115448205E-2,-1.454319477E-2,1.874333940E-2
1.499414833E0,-1.463846327E-2,2.859146842E-3,-4.813427925E-3,1.567253700E-2
1.509363833E0,-3.584630988E-3,2.378651896E-3,-8.107164502E-3,9.177890848E-3
1.519313833E0,-4.617388600E-3,1.253233274E-2,-1.304689229E-2,1.867086071E-2
1.529263833E0,-9.976003147E-3,1.903175733E-2,-1.035249531E-2,2.385167888E-2
1.539213833E0,-8.339534223E-3,1.277748868E-2,-9.155570269E-3,1.779428321E-2
1.549162833E0,-1.909068173E-2,1.479735451E-2,-8.257437944E-3,2.552647862E-2
1.559112833E0,-2.113425848E-2,1.588396132E-3,-6.760550737E-3,2.224600931E-2
1.569062833E0,-1.464598014E-2,-9.239674243E-3,-1.978405416E-2,2.629230141E-2
1.579012833E0,-1.517773872E-2,-1.177491960E-2,-1.873740256E-2,2.683473009E-2
1.588961833E0,-1.549605566E-2,-1.147770517E-2,-1.170203269E-2,2.255666256E-2
1.598911833E0,-9.108164425E-3,-9.628239996E-3,-1.903619528E-2,2.319565466E-2
1.608861833E0,-1.519600442E-2,-1.250364255E-2,-1.409588277E-2,2.420647720E-2
1.618811833E0,-1.991890329E-2,-1.523527441E-2,-1.244930685E-2,2.799752731E-2
1.628761833E0,-1.709143648E-2,-1.001817391E-2,-4.066738486E-3,2.022422733E-2
1.638710833E0,-1.684073711E-2,-9.296581813E-3,-1.005487204E-2,2.170569767E-2
1.648660833E0,-1.235034957E-2,-2.961308663E-3,-7.360475063E-3,1.467913747E-2
1.658610833E0,-7.535512378E-3,5.889701613E-3,1.771121621E-3,9.726736538E-3
1.668560833E0,-1.241952716E-2,-8.320656396E-4,-6.910239458E-3,1.423686754E-2
1.678509833E0,-1.241895614E-2,8.689549465E-3,-1.095183492E-2,1.869977084E-2
1.688459833E0,-1.631023476E-2,9.865908755E-3,-1.574245870E-2,2.472215443E-2
1.698409833E0,-1.565391907E-2,4.774977914E-3,-1.050393820E-2,1.944680729E-2
1.708359833E0,-1.833460934E-2,3.168430289E-3,-4.815182090E-3,1.921933476E-2
1.718309833E0,-1.861134024E-2,7.150564590E-3,-6.312069297E-3,2.091302892E-2
1.728258833E0,-2.037172217E-2,3.026868284E-3,-1.222068071E-3,2.063158856E-2
1.738208833E0,-1.442512670E-2,3.014205408E-3,-8.706504107E-3,1.711645197E-2
1.748158833E0,-2.034912131E-2,-3.642495582E-4,-1.469405293E-2,2.510248210E-2
1.758108833E0,-1.518521677E-2,-3.984744991E-3,-1.304747701E-2,2.041336957E-2
1.768057833E0,-1.643215149E-2,-2.482540472E-3,-1.065245748E-2,1.973964184E-2
1.778007708E0,-2.087840853E-2,-8.513692170E-3,-1.274809957E-2,2.590183275E-2
1.787957708E0,-1.634027483E-2,-2.313048877E-3,-9.305258989E-3,1.894578110E-2
1.797907708E0,-6.186338172E-3,-1.092529861E-2,-7.059343457E-3,1.440372381E-2
1.807857708E0,-1.016703123E-2,-2.360646583E-3,-9.304674268E-3,1.398278010E-2
1.817806708E0,-9.381524040E-3,3.665397938E-3,-1.334626973E-2,1.672037831E-2
1.827756708E0,-7.552179226E-3,-6.180986599E-3,-1.080156147E-2,1.455725718E-2
1.837706708E0,-4.323744171E-3,-3.569263774E-3,8.735740185E-4,5.674287542E-3
1.847656708E0,-1.216813572E-2,4.835112873E-3,-1.723934591E-2,2.164802279E-2
1.857605708E0,-1.423521553E-2,2.700079735E-3,-5.712144971E-3,1.557435045E-2
1.867555708E0,-1.562030443E-2,-5.557138938E-5,-7.358720899E-3,1.726695607E-2
1.877505708E0,-1.831864370E-2,5.037314615E-3,-9.154985547E-3,2.108935765E-2
1.887455708E0,-1.077804470E-2,-8.950237068E-4,-1.484315693E-2,1.836536476E-2
1.897404708E0,-2.283458083E-2,-1.575404350E-3,-1.334685445E-2,2.649600921E-2
1.907354708E0,-1.651890042E-2,-7.295726286E-4,-7.735866308E-4,1.655308985E-2
1.917304708E0,-1.484471695E-2,1.015953720E-3,-1.140148580E-2,1.874544376E-2
1.927254708E0,-1.557609856E-2,4.937512237E-3,-1.379650533E-2,2.138544909E-2
1.937204708E0,-1.574927893E-2,1.369024818E-2,-1.858654439E-2,2.794498729E-2
1.947153708E0,-1.020435976E-2,4.008439919E-3,-1.020397604E-2,1.497723858E-2
1.957103708E0,-1.336000840E-2,-1.055333118E-2,-6.761135459E-3,1.831872201E-2
1.967053708E0,-9.499968986E-3,-8.812701877E-3,-1.454436421E-2,1.947951887E-2
1.977003708E0,-1.105268111E-2,-2.160861385E-3,-8.556815386E-3,1.414390934E-2
1.986952708E0,-7.779384668E-3,-1.161273017E-3,-8.556815386E-3,1.162267054E-2
1.996902708E0,-1.431515336E-2,-8.784484493E-3,-8.257437944E-3,1.871566363E-2
2.006852708E0,-1.818585024E-2,-1.274476026E-2,-1.095125020E-2,2.476053198E-2
2.016802708E0,-1.479832295E-2,-7.668086572E-3,-7.956891060E-3,1.846894770E-2
2.026751708E0,-1.418833273E-2,-3.478666192E-3,-7.956891060E-3,1.663496377E-2
2.036701708E0,-1.689712391E-2,2.954648319E-3,-1.678969502E-2,2.400284571E-2
2.046651708E0,-5.123483387E-3,1.114705198E-2,-1.798720479E-2,2.177260632E-2
2.056601708E0,-7.248491747E-3,2.470544544E-3,-1.214992940E-2,1.436192910E-2
2.066551708E0,-7.007337499E-3,-6.670919317E-4,-1.334802389E-2,1.509031253E-2
2.076500708E0,-1.403368987E-2,-2.003749441E-3,-1.244989157E-2,1.886688271E-2
2.086450708E0,-1.127192886E-2,6.238145416E-3,-6.910239458E-3,1.461924238E-2
2.096400708E0,-4.141422962E-3,1.740003470E-3,-6.461758018E-3,7.869772100E-3
2.106350708E0,-3.302475424E-3,-4.882623784E-3,-3.056164205E-2,3.112491484E-2
2.116299708E0,-6.020108226E-3,-4.869620581E-3,-1.080273092E-2,1.329112121E-2
2.126249708E0,-2.113418996E-3,4.248520655E-3,-1.244989157E-2,1.332352309E-2
2.136199708E0,-1.494374960E-2,4.733828134E-3,-7.061682343E-3,1.719279321E-2
2.146149708E0,-1.092316986E-2,-4.146132711E-4,-1.080331564E-2,1.536877265E-2
2.156098708E0,-8.477868838E-3,-4.030661623E-3,-1.155175924E-2,1.488501376E-2
2.166048708E0,-1.530337620E-2,-5.907784584E-3,-9.905183315E-3,1.916266940E-2
2.175998708E0,-1.669004568E-2,3.536747773E-3,-9.754909873E-3,1.965259464E-2
2.185948708E0,-1.231674179E-2,-2.787589256E-3,-5.264832973E-3,1.368178528E-2
2.195898708E0,-2.054218221E-3,3.575389646E-3,-5.713899136E-3,7.046408089E-3
2.205847708E0,-1.652466084E-2,-5.589150160E-3,-5.115144253E-3,1.817877103E-2
2.215797708E0,-2.296930890E-2,-7.308334345E-4,-2.562366843E-2,3.441940808E-2
2.225747708E0,-1.768511616E-2,8.428937236E-3,-2.457584739E-2,3.142900875E-2
2.235697708E0,-2.238278749E-2,1.910079787E-3,-3.918219209E-3,2.280328972E-2
2.245646708E0,-2.672285361E-2,-5.753685327E-3,-7.510163784E-3,2.834816326E-2
2.255596708E0,-2.644888872E-2,-1.586641967E-3,-9.455532432E-3,2.813304535E-2
2.265546708E0,-2.843236477E-2,-1.409754329E-2,-1.589273214E-2,3.549252073E-2
2.275496708E0,-2.850456874E-2,-1.363827876E-2,-1.753930807E-2,3.614056467E-2
2.285445708E0,-2.595798299E-2,-1.997937172E-2,-1.693938375E-2,3.687729514E-2
2.295395708E0,-1.487143142E-2,-1.206986138E-2,-7.209616899E-3,2.046508251E-2
2.305345708E0,-9.579148509E-3,-3.177221669E-3,-9.155570269E-3,1.362641885E-2
2.315295708E0,-5.468096808E-3,-5.768026994E-4,-1.708848774E-2,1.795130072E-2
2.325244708E0,1.988249752E-3,5.125335767E-3,-8.555645943E-3,1.016962543E-2
2.335194708E0,2.961902521E-3,1.148363004E-2,-6.758796573E-3,1.365019988E-2
2.345144708E0,-6.371203833E-4,5.606977316E-3,-1.035132587E-2,1.178957439E-2
2.355094708E0,2.262031920E-3,5.291593121E-4,-1.139856219E-2,1.163288520E-2
2.365043708E0,-2.406186343E-3,9.033530199E-3,-2.636801898E-2,2.797618319E-2
2.374993708E0,2.891311096E-4,1.272899333E-2,-2.172766864E-2,2.518337651E-2
2.384943708E0,-2.823099671E-3,2.631205930E-3,-1.454377949E-2,1.504708139E-2
2.394893708E0,-1.152756410E-2,5.106531030E-3,-1.873623312E-2,2.258335282E-2
2.404842708E0,-2.272577922E-2,2.764476766E-4,-6.161795855E-3,2.354793393E-2
2.414792708E0,-2.164996234E-2,4.249968755E-3,-1.873564839E-2,2.894490671E-2
2.424742708E0,-3.104073915E-2,-1.890530444E-3,-1.274809957E-2,3.360975505E-2
2.434692708E0,-3.362813207E-2,-1.389275598E-2,-1.214934468E-2,3.835969906E-2
2.444641708E0,-2.763014277E-2,-1.682488567E-2,-1.783810079E-2,3.694183816E-2
2.454591708E0,-2.102284390E-2,-1.963230064E-2,-9.904013872E-3,3.042164829E-2
2.464541708E0,-1.249745044E-2,-1.091503172E-2,-9.005881548E-3,1.887935612E-2
2.474491708E0,-1.137666483E-2,-5.117894271E-3,-1.259782612E-2,1.772925738E-2
2.484440708E0,-8.048221827E-3,-8.369382431E-3,-1.454319477E-2,1.860980793E-2
2.494390708E0,-3.947612888E-3,-1.150236398E-3,3.419451714E-3,5.347835198E-3
2.504340708E0,2.587132542E-3,-1.301825463E-3,-4.514050484E-3,5.363269161E-3
2.514290708E0,2.604882040E-3,2.618111365E-3,-1.783693135E-2,1.821526935E-2
2.524240708E0,-5.883546048E-3,-9.671705822E-4,-1.678969502E-2,1.781699728E-2
2.534189708E0,-4.710080673E-3,8.050953574E-3,-1.169969380E-2,1.496280550E-2
2.544139708E0,-1.567118434E-2,5.117442026E-3,-1.379533589E-2,2.149617463E-2
2.554089708E0,-1.781192080E-2,5.231560946E-3,-2.023195088E-2,2.745843384E-2
2.564039708E0,-2.051615754E-2,1.617942844E-4,-2.262638569E-2,3.054328448E-2
2.573988708E0,-2.433083535E-2,1.169842843E-3,-1.499284565E-2,2.860320789E-2
2.583938708E0,-2.179860953E-2,1.096652148E-3,-7.956891060E-3,2.323131806E-2
2.593888708E0,-1.844885160E-2,-7.428407832E-4,-1.783634663E-2,2.567191459E-2
2.603838708E0,-1.444269118E-2,-8.284307728E-3,-1.304630756E-2,2.115247560E-2
2.613787708E0,-1.565531463E-2,-7.886733608E-3,-2.127860248E-2,2.756933744E-2
2.623737708E0,-1.618878170E-2,-1.161211347E-3,-1.544015765E-2,2.240141810E-2
2.633687708E0,-1.386440612E-2,-6.325344304E-3,-1.035015643E-2,1.842165779E-2
2.643637708E0,1.919291436E-3,-1.610688870E-2,-1.005077899E-2,1.908228764E-2
2.653586708E0,-6.811138289E-3,-1.009774857E-2,-2.717201114E-3,1.247955580E-2
2.663536708E0,3.521138448E-3,-7.883979022E-3,-8.704165220E-3,1.226042550E-2
2.673486708E0,-7.227275034E-3,5.543130746E-3,-7.955136895E-3,1.209313879E-2
2.683436708E0,-7.508302268E-3,-1.190376619E-3,-1.738552630E-2,1.897493410E-2
2.693385708E0,-1.009485694E-2,2.060097414E-3,-1.873330951E-2,2.137959361E-2
2.703335708E0,-7.536167905E-3,8.340765336E-3,-3.165682554E-3,1.167834488E-2
2.713285708E0,-1.776760073E-2,5.206612065E-3,-1.379299700E-2,2.308772858E-2
2.723235708E0,-1.600942749E-2,-2.859078320E-3,-1.843334734E-2,2.458178984E-2
2.733184708E0,-1.823125067E-2,-2.493282447E-3,-1.109918475E-2,2.148922661E-2
2.743134708E0,-1.728842597E-2,-2.801960616E-3,-1.469112933E-2,2.285978864E-2
2.753084708E0,-1.028251145E-2,-5.231069871E-3,-1.079922259E-2,1.580244735E-2
2.763034708E0,-1.429387726E-2,4.378392796E-3,-1.244579852E-2,1.945207319E-2
2.772983708E0,-1.119114364E-2,6.347330748E-3,-1.274576068E-2,1.811034839E-2
2.782934333E0,-1.444584320E-2,-2.770109279E-3,-1.020046771E-2,1.789987242E-2
2.792884333E0,-8.011528265E-3,7.511228160E-3,-1.454144061E-2,1.822242104E-2
2.802834333E0,-5.844497611E-3,-5.147155474E-3,-1.065011859E-2,1.319380111E-2
2.812783333E0,-1.994272384E-2,-3.405747302E-3,-7.806032896E-3,2.168514465E-2
2.822733333E0,-1.363216660E-2,-1.856681918E-2,-2.666681170E-2,3.523750256E-2
2.832683333E0,-1.017523103E-2,-9.348761360E-3,-1.094949603E-2,1.763026173E-2
2.842633333E0,-1.019408373E-2,-2.256153870E-2,-1.214642107E-2,2.757676407E-2
2.852582333E0,-5.638883470E-3,-7.489319374E-3,-8.403618336E-3,1.258998461E-2
2.862532333E0,-2.839382796E-3,-7.570965691E-3,-1.667625904E-3,8.256063972E-3
2.872482333E0,-6.866627452E-3,1.497305192E-3,-1.603832781E-2,1.751058121E-2
2.882432333E0,-1.694156503E-2,4.380592355E-3,-1.424206316E-2,2.256197195E-2
2.892381333E0,-2.105477746E-2,4.201637863E-3,-4.811673760E-3,2.200249120E-2
2.902331333E0,-1.835422492E-2,5.313634383E-3,-9.900505543E-3,2.152050866E-2
2.912281333E0,-1.279276224E-2,8.799783185E-3,-1.816729903E-3,1.563302458E-2
2.922231333E0,-1.145595170E-2,1.650101388E-2,-4.660815597E-3,2.062148128E-2
2.932180333E0,-7.520396411E-3,1.110448836E-2,-1.768490374E-2,2.219508604E-2
2.942130333E0,-1.156802410E-2,-5.645418190E-4,-2.266965508E-3,1.180156861E-2
2.952080333E0,-2.237640352E-3,4.949857628E-3,-1.394385517E-2,1.496459895E-2
2.962030333E0,-8.634437174E-3,5.344387083E-3,-8.105410337E-3,1.299283092E-2
2.971979333E0,-1.434502669E-2,-3.530882285E-3,-1.978113055E-2,2.468886483E-2
2.981929333E0,-1.753005531E-2,-1.909785143E-2,-1.214759052E-2,2.862856482E-2
2.991879333E0,-2.195856514E-2,-5.808907254E-3,-2.172825336E-2,3.143308736E-2
3.001829333E0,-1.793381925E-2,-5.465492969E-3,-1.439292133E-2,2.363577100E-2
3.011778333E0,-1.537968694E-2,-1.669803078E-2,-1.768665791E-2,2.877806231E-2
3.021728333E0,-1.191003825E-2,-7.078975027E-3,-1.514136493E-2,2.052368949E-2
3.031678333E0,-9.745364750E-3,1.958020104E-3,-1.259607196E-2,1.604577844E-2
3.041628333E0,-7.720026292E-3,1.391856596E-3,-2.217615008E-2,2.352270612E-2
3.051577333E0,-2.577461796E-3,2.989868657E-4,-1.663942158E-2,1.684051819E-2
3.061527333E0,-1.403135784E-2,-4.536132859E-3,-7.958060503E-3,1.675667721E-2
3.071477333E0,-1.740053035E-2,-1.969947510E-3,-1.888533711E-2,2.575490453E-2
3.081427333E0,-1.923006017E-2,3.881361193E-3,-2.592129171E-2,3.250805351E-2
3.091376333E0,-1.920276098E-2,-7.663054769E-3,-1.559218526E-2,2.589564981E-2
3.101326333E0,-1.644368832E-2,-9.196548744E-3,-1.664059103E-2,2.513723660E-2
3.111276333E0,-5.521815817E-3,4.704642305E-3,-1.005311787E-2,1.239714838E-2
3.121226333E0,-1.512896701E-2,6.213073195E-3,-1.604066670E-2,2.290831529E-2
3.131175333E0,-1.514886125E-2,-2.035045750E-3,-8.854438663E-3,1.766438485E-2
3.141125333E0,-1.676217200E-2,-5.345035759E-3,-2.202704608E-2,2.819096622E-2
3.151075333E0,-8.896040688E-3,-1.109134126E-2,-1.469288349E-2,2.044598289E-2
3.161025333E0,-1.852884654E-2,-4.955590640E-3,-1.379533589E-2,2.362598834E-2
3.170974333E0,-4.968285493E-3,-7.371344946E-3,-3.466229439E-3,9.541243817E-3
3.180924333E0,-1.594796092E-2,-1.775759879E-2,-2.262638569E-2,3.288803889E-2
3.190874333E0,-2.669531917E-2,-1.002380413E-2,-1.768724263E-2,3.355525691E-2
3.200824333E0,-1.483884233E-2,3.388429494E-3,-1.813630879E-2,2.367695911E-2
3.210773333E0,-1.178839560E-2,-2.453704106E-3,-5.861248970E-3,1.339183237E-2
3.220723333E0,-1.421505177E-2,1.832547078E-3,-1.154942036E-2,1.840692903E-2
3.230673333E0,-1.092429819E-2,2.548639134E-3,-9.902844429E-3,1.496336126E-2
3.240623333E0,-8.270859132E-3,3.686016225E-3,-1.918354511E-2,2.121325598E-2
3.250572333E0,-1.510005527E-2,-4.721715718E-3,-2.427354634E-2,2.897432174E-2
3.260522333E0,-1.655631575E-2,-1.181580671E-3,-1.439409077E-2,2.197037945E-2
3.270472333E0,-2.202818355E-2,3.880712518E-3,-7.209032178E-3,2.350044564E-2
3.280422333E0,-1.092565492E-2,-6.231213268E-4,-7.808371782E-3,1.344354438E-2
3.290371333E0,-9.669860294E-3,-4.576199991E-4,-2.053191304E-2,2.269967108E-2
3.300321333E0,-1.443112009E-2,-2.586762523E-3,-1.244872212E-2,1.923328495E-2
3.310271333E0,-1.353349255E-2,-9.268659074E-3,-1.723876119E-2,2.379576325E-2
3.320221333E0,-9.997578459E-3,-6.738390704E-4,-5.713314414E-3,1.153462595E-2
3.330170333E0,-1.701020358E-2,-3.774560429E-4,-8.258022666E-3,1.891254708E-2
3.340120333E0,-1.886954278E-2,-1.202593189E-2,-1.050335348E-2,2.471847723E-2
3.350070333E0,-1.244476155E-2,-1.170182484E-2,-8.107749224E-3,1.890873851E-2
3.360020333E0,-1.955334953E-2,-8.239882593E-3,-6.311484575E-3,2.213738874E-2
3.369969333E0,-1.823188107E-2,-9.131843364E-3,-3.018332720E-3,2.061316043E-2
3.379919333E0,-1.386173376E-2,8.923088629E-3,-1.888475239E-2,2.506796854E-2
3.389869333E0,-1.533543082E-2,6.397128012E-4,-2.157856464E-2,2.648054235E-2
3.399819333E0,-1.799172725E-2,5.526395375E-3,-8.855023384E-3,2.080035419E-2
3.409768333E0,-1.849782889E-2,8.651243350E-3,8.753281832E-4,2.043966449E-2
3.419718333E0,-7.668082004E-3,9.614976409E-3,-7.507240176E-3,1.440853594E-2
3.429668333E0,-8.021772313E-3,3.495205133E-3,-1.124945819E-2,1.425186302E-2
3.439618333E0,-7.451776138E-3,-8.414102211E-3,-2.666739643E-2,2.893917960E-2
3.449567333E0,-8.732690953E-3,-1.437493429E-2,-7.057004571E-3,1.824006416E-2
3.459517333E0,-1.213966937E-2,7.236500387E-3,-1.439175189E-2,2.017079653E-2
3.469467333E0,-1.175271388E-2,-5.543073644E-3,-1.379299700E-2,1.894990014E-2
3.479417333E0,-1.354678126E-2,1.061050370E-3,-1.933147967E-2,2.362937190E-2
3.489366333E0,-1.041859626E-2,-8.631883585E-4,-2.082836688E-2,2.330478725E-2
3.499316333E0,-1.330699745E-2,-8.422247199E-3,-1.364389300E-2,2.083665629E-2
3.509266333E0,-1.230490118E-2,-3.101125639E-3,-9.302920103E-3,1.573441755E-2
3.519215333E0,-1.630260826E-2,-3.755383389E-3,-1.424264789E-2,2.197113923E-2
3.529165333E0,-2.293638177E-2,-1.319143043E-2,-1.783576190E-2,3.190933794E-2
3.539115333E0,-1.584970486E-2,-7.853244594E-4,-1.094949603E-2,1.928007630E-2
3.549065333E0,-1.311307089E-2,-7.291514464E-3,-1.379299700E-2,2.038051956E-2
3.559015333E0,-8.097745003E-3,4.228841120E-3,-1.648680925E-2,1.884864586E-2
3.568964333E0,-1.211658657E-2,6.089959613E-3,-1.079922259E-2,1.733558441E-2
3.578914333E0,-8.070934606E-3,-1.829015908E-3,-2.517050922E-2,2.649603402E-2
3.588864333E0,-1.570593188E-2,2.234412963E-4,-1.514078021E-2,2.181672403E-2
3.598813333E0,-1.421799365E-2,5.776532865E-3,-5.111635923E-3,1.617555245E-2
3.608763333E0,-1.097863618E-2,2.228127206E-3,-5.560117364E-3,1.250639470E-2
3.618713333E0,-1.184771058E-2,-4.313036457E-3,1.924318671E-3,1.275435345E-2
3.628663333E0,-1.815729938E-2,-5.818420399E-3,-9.751401544E-3,2.141568044E-2
3.638612333E0,-1.273934701E-2,4.617201306E-3,-1.274517596E-2,1.860239287E-2
3.648562333E0,-1.823979994E-2,-1.645998058E-3,-1.678677142E-2,2.484341575E-2
3.658512333E0,-2.205253172E-2,5.039317743E-3,-1.663649797E-2,2.807992065E-2
3.668462333E0,-1.818412348E-2,-5.427406125E-3,-1.723466814E-2,2.563499307E-2
3.678411333E0,-1.106528004E-2,-5.809430305E-3,-1.154649675E-2,1.701503717E-2
3.688361333E0,-1.335770377E-2,7.617151842E-3,-4.211749434E-3,1.594327713E-2
3.698311333E0,-1.479278865E-2,-2.859060047E-4,-7.953967452E-3,1.679803371E-2
3.708261333E0,-1.421421580E-3,5.547507021E-3,-1.199497819E-2,1.329190638E-2
3.718210333E0,-8.161310633E-3,-1.502844058E-3,-1.409120500E-2,1.635321344E-2
3.728160333E0,-1.317231506E-2,-1.068354365E-2,-1.214583635E-2,2.086071259E-2
3.738110333E0,-1.178127159E-2,-1.043251080E-2,-1.005019426E-2,1.867195884E-2
3.748060333E0,-9.063138580E-3,6.468071183E-3,-1.768431902E-2,2.089764496E-2
3.758009333E0,-8.355383375E-3,1.184278385E-2,-1.663649797E-2,2.206438364E-2
3.767959333E0,-1.657235676E-2,2.220820470E-3,-1.603715837E-2,2.316820020E-2
3.777908375E0,-9.986633202E-3,1.181617216E-3,-1.992906511E-2,2.232256029E-2
3.787858375E0,-1.939801459E-2,5.116281719E-3,-2.067750871E-2,2.881004469E-2
3.797807375E0,-1.769216708E-2,-8.815253181E-3,-1.603598893E-2,2.545337709E-2
3.807757375E0,-1.951775460E-2,8.418277488E-4,-9.149723053E-3,2.157240947E-2
3.817707375E0,-2.476084781E-2,2.900097908E-3,-1.498758316E-2,2.908844790E-2
3.827657375E0,-1.867377297E-2,-3.594027646E-4,-1.843100846E-2,2.624006555E-2
3.837606375E0,-1.259746524E-2,-1.478417771E-2,-1.274283707E-2,2.323032367E-2
3.847556375E0,-1.909367615E-2,-1.825005997E-2,-4.809919596E-3,2.684713177E-2
3.857506375E0,-1.808099322E-2,-4.921512336E-3,-2.816194475E-2,3.382659799E-2
3.867456375E0,-7.650437574E-3,-4.011996214E-3,-1.049809098E-2,1.359541184E-2
3.877405375E0,1.390769379E-4,-3.204694446E-3,-1.423972428E-2,1.459654604E-2
3.887355375E0,-7.632000572E-3,-6.583894019E-3,-1.067701578E-3,1.013583148E-2
3.897305375E0,-3.795624110E-3,-1.207525406E-3,-7.055250406E-3,8.101940403E-3
3.907255375E0,-1.043293564E-2,8.124308721E-3,-2.666388810E-2,2.976261861E-2
3.917204375E0,-1.908892985E-2,4.590808894E-3,-1.124594986E-2,2.262596203E-2
3.927154375E0,-1.645659559E-2,9.038925169E-3,-2.157447159E-2,2.860034145E-2
3.937104375E0,-1.192801387E-2,3.862698069E-3,-2.277256608E-2,2.599591731E-2
3.947054375E0,-1.268124031E-2,5.376334351E-3,-1.513902605E-2,2.046726500E-2
3.957003375E0,-1.004043215E-2,7.198429531E-3,-2.367245257E-2,2.670229721E-2
3.966953375E0,-1.382736767E-2,-4.089090382E-3,-1.334451556E-2,1.964670080E-2
3.976903375E0,-7.688307432E-3,-6.128811620E-3,-2.142829120E-2,2.357634549E-2
3.986853375E0,-1.013308768E-2,-6.172083300E-3,-1.094949603E-2,1.614513987E-2
3.996802375E0,-2.040218708E-2,-8.676555399E-3,-8.704165220E-3,2.381794163E-2
4.006752375E0,-2.788116876E-3,-4.582864903E-3,-1.349303484E-2,1.452026982E-2
4.016702375E0,-7.701596143E-3,-4.315980622E-3,-1.813338518E-2,2.016833979E-2
4.026651375E0,-1.578354453E-2,-7.924907247E-3,-2.397066057E-2,2.977443536E-2
4.036601375E0,-1.279347487E-2,4.627906736E-3,-2.187501848E-2,2.576056974E-2
4.046551375E0,-9.828484291E-3,-4.098690322E-3,-6.307976246E-3,1.237695157E-2
4.056501375E0,-6.429296834E-3,-7.437137542E-3,-1.319307268E-2,1.645308601E-2
4.066450375E0,-1.265226461E-2,4.756321642E-4,-1.139622331E-2,1.703466852E-2
4.076400375E0,-1.276282267E-2,3.096066427E-3,-5.259570479E-3,1.414702624E-2
4.086350375E0,-1.031156937E-2,-2.890968486E-3,-1.334334612E-2,1.710938477E-2
4.096300375E0,-1.661599617E-2,7.492208721E-3,-8.852684498E-3,2.026313261E-2
4.106249375E0,-1.508279684E-2,3.108000685E-4,-1.304396868E-2,1.994323134E-2
4.116199375E0,-1.398741235E-2,3.821329018E-3,-5.260155201E-3,1.542463914E-2
4.126149375E0,-7.342289309E-3,5.806689423E-3,-8.702995777E-3,1.278158792E-2
4.136099375E0,-3.150603133E-3,3.255853015E-3,-2.756318986E-2,2.793306848E-2
4.146048375E0,-3.881189888E-3,-3.601181349E-3,-2.052840471E-2,2.120017788E-2
4.155998375E0,-1.237191803E-2,-1.903300672E-3,-2.007992327E-2,2.366199966E-2
4.165948375E0,-1.537499317E-2,-5.552458882E-3,-1.723642230E-2,2.375530401E-2
4.175898375E0,-5.863761446E-3,-6.877648083E-3,-2.427120745E-2,2.589936780E-2
4.185847375E0,-1.429957144E-2,-1.459070340E-2,-9.901090264E-3,2.270237780E-2
4.195797375E0,-2.089045700E-2,-5.010266674E-3,-1.738552630E-2,2.763639793E-2
4.205747375E0,-2.175225893E-2,-6.825148766E-3,-1.648680925E-2,2.813464596E-2
4.215697375E0,-1.602292862E-2,-3.498612964E-3,-1.094891131E-2,1.971936087E-2
4.225646375E0,-1.564125619E-2,-7.231393210E-3,-6.607938409E-3,1.845553556E-2
4.235596375E0,-2.211256161E-2,-1.959831370E-3,-1.259548724E-2,2.552356987E-2
4.245546375E0,-2.080442527E-2,-4.138216130E-3,-2.232525408E-2,3.079555022E-2
4.255496375E0,-3.286847826E-3,-1.003781918E-3,-1.259607196E-2,1.305649170E-2
4.265445375E0,-1.131397400E-2,4.638968480E-3,-6.009183526E-3,1.362484212E-2
4.275395375E0,-7.986460612E-3,8.303594403E-4,-1.558926165E-2,1.753562456E-2
4.285345375E0,-1.436163872E-2,-8.116006132E-3,-1.648680925E-2,2.332254492E-2
4.295295375E0,-5.916116866E-3,2.487871489E-3,-1.813338518E-2,1.923563364E-2
4.305244375E0,-1.087816000E-2,1.044472600E-2,-2.022961199E-2,2.523219903E-2
4.315194375E0,-9.020038205E-3,3.941799933E-4,-1.618918598E-2,1.853661808E-2
4.325144375E0,-8.741130587E-3,7.242009561E-3,-1.678852558E-2,2.026594823E-2
4.335093375E0,-1.292454843E-2,-7.076798310E-4,-2.262638569E-2,2.606718420E-2
4.345043375E0,-1.497680007E-2,1.628744204E-3,-1.095066547E-2,1.862456503E-2
4.354993375E0,-1.194010344E-2,-1.700961886E-3,-1.693762958E-2,2.079285063E-2
4.364943375E0,-1.691549239E-2,-4.233502904E-3,-1.259665668E-2,2.151121078E-2
4.374892375E0,-1.910789904E-2,-6.756935057E-3,1.474667788E-3,2.032098970E-2
4.384842375E0,-1.324332904E-2,-6.912671991E-3,-1.813396990E-2,2.349492844E-2
4.394792375E0,-1.629561901E-2,-3.887174148E-3,-1.648739398E-2,2.350513735E-2
4.404742375E0,-1.347674715E-2,-1.004391764E-2,-7.805448174E-3,1.853181093E-2
4.414691375E0,-8.773813325E-3,-1.325504631E-2,-1.439233661E-2,2.144330679E-2
4.424641375E0,-1.338109720E-2,-9.731907018E-3,-1.753638446E-2,2.410992652E-2
4.434591375E0,-1.573539179E-2,-8.702625758E-3,-2.082953632E-2,2.751740964E-2
4.444541375E0,-1.440233854E-2,2.194747827E-3,-5.411598086E-3,1.554122477E-2
4.454490375E0,-1.759638923E-2,3.183338405E-3,-6.908485293E-3,1.917012588E-2
4.464440375E0,-1.358009897E-2,2.966086934E-3,-2.023195088E-2,2.454686530E-2
4.474390375E0,-1.766057613E-2,9.417125818E-3,-8.107164502E-3,2.159408076E-2
4.484340375E0,-1.753939715E-2,5.989695853E-3,-1.379475117E-2,2.310415695E-2
4.494289375E0,-1.867231346E-2,8.115978723E-3,-1.379533589E-2,2.459340750E-2
4.504239375E0,-7.769990293E-3,3.588237532E-3,-7.359305620E-3,1.128749649E-2
4.514189375E0,-2.440152727E-3,-3.352592457E-3,-1.738786519E-2,1.787546020E-2
4.524139375E0,-1.110985592E-2,-6.843798186E-3,-1.304630756E-2,1.845189999E-2
4.534088375E0,-1.737597204E-2,-5.082443242E-3,-1.918296039E-2,2.637691421E-2
4.544038375E0,-1.342199345E-2,4.028777266E-4,-9.604051709E-3,1.650908925E-2
4.553988375E0,-1.762426629E-2,-1.160734662E-2,-1.409471333E-2,2.537727727E-2
4.563938375E0,-1.294010523E-2,-4.080954529E-3,-1.229844868E-2,1.831262824E-2
4.573887375E0,-1.676862449E-2,-2.182397868E-3,-1.499284565E-2,2.259944797E-2
4.583837375E0,-1.299929686E-2,-4.704854724E-3,-2.247669697E-2,2.638786243E-2
4.593787375E0,-1.740070394E-2,5.500813806E-4,-2.277548969E-2,2.866722898E-2
4.603737375E0,-1.491786197E-2,-2.526038275E-3,-1.469171405E-2,2.108956938E-2
4.613686375E0,-1.182555740E-2,-6.179186753E-3,-6.009183526E-3,1.463340163E-2
4.623636375E0,-1.922838138E-2,-2.327417952E-3,-7.506070733E-3,2.077230422E-2
4.633586375E0,-1.500120991E-2,-8.858623076E-4,-6.907315850E-3,1.653880477E-2
4.643536375E0,-1.825086853E-2,-5.735821626E-4,-1.379358172E-2,2.288418877E-2
4.653485375E0,-1.796032359E-2,1.921226042E-3,-1.184821308E-2,2.160195560E-2
4.663435375E0,-1.059913133E-2,9.025321256E-3,-7.956306338E-3,1.603436370E-2
4.673385375E0,-1.370321483E-2,4.999380803E-3,-1.124945819E-2,1.842070072E-2
4.683335375E0,-6.183272952E-3,2.899191133E-4,-1.035132587E-2,1.206096450E-2
4.693284375E0,-1.399388769E-2,1.992623286E-2,-2.097980976E-2,3.214087843E-2
4.703234375E0,-1.177192062E-2,7.011199859E-4,-8.107164502E-3,1.431068833E-2
4.713184375E0,-8.165191265E-3,-2.122511873E-3,-1.514370382E-2,1.733514264E-2
4.723134375E0,-6.355331840E-3,-5.693102691E-3,-2.906475484E-2,3.029127985E-2
4.733083375E0,-9.792711209E-3,-1.470540476E-3,-2.367596090E-2,2.566341377E-2
4.743033375E0,-1.731235388E-2,-8.800813300E-4,-1.559276998E-2,2.331580184E-2
4.752983375E0,-1.040125333E-2,-2.734484661E-3,-2.869228721E-3,1.113085579E-2
4.762933375E0,-1.753995218E-2,-4.061775205E-3,-9.754325151E-3,2.047668917E-2
4.772882375E0,-1.468480702E-2,4.059673862E-3,-1.738728046E-2,2.311800232E-2
4.782832833E0,-1.874507018E-2,-1.614270518E-2,-1.020105243E-2,2.675866322E-2
4.792782833E0,-2.099015659E-2,-1.018080873E-2,-1.529046893E-2,2.789326048E-2
4.802732833E0,-2.127189189E-2,-4.411884095E-3,-1.070625186E-3,2.175096191E-2
4.812681833E0,-2.059280631E-2,-5.641706579E-3,-7.807202339E-3,2.273422383E-2
4.822631833E0,-1.537242360E-2,4.028267919E-3,-1.199848652E-2,1.991235869E-2
4.832581833E0,-2.252611508E-2,6.060824033E-3,-1.738844991E-2,2.909497617E-2
4.842531833E0,-1.957722946E-2,3.240679947E-3,-1.095125020E-2,2.266494652E-2
4.852480833E0,-1.957053486E-2,-7.641602797E-4,-1.379533589E-2,2.395623234E-2
4.862430833E0,-5.698742056E-3,2.640657406E-3,-1.828541279E-2,1.933403872E-2
4.872380833E0,-7.646225751E-3,1.538233417E-3,-1.529163837E-2,1.716581296E-2
4.882329833E0,-1.417940659E-2,7.246824377E-3,-9.154985547E-3,1.836806455E-2
4.892279833E0,-4.859678030E-3,-5.893682744E-3,-1.634004414E-2,1.803743356E-2
4.902229833E0,-1.180009689E-2,-2.732483817E-3,-2.568681836E-3,1.238171558E-2
4.912179833E0,-9.005287690E-3,-2.195131551E-3,-6.011522412E-3,1.104772423E-2
4.922128833E0,-8.352530573E-3,-9.633356309E-4,-3.385362446E-2,3.488209672E-2
4.932078833E0,-1.166668901E-2,-1.661394965E-3,4.250925779E-4,1.179205535E-2
4.942028833E0,-1.573923360E-2,5.717558214E-3,-2.719540000E-3,1.696495930E-2
4.951978833E0,-1.557425075E-2,-4.789445205E-3,-1.229903340E-2,2.041475678E-2
4.961927833E0,-1.587152913E-2,-3.861398434E-3,-1.753755391E-2,2.396626028E-2
4.971877833E0,-1.971003206E-2,-4.714954875E-3,-2.202821553E-2,2.993256492E-2
4.981827833E0,-1.563282798E-2,1.092725834E-3,-1.783634663E-2,2.374267511E-2
4.991777833E0,-1.743503349E-2,-3.918696579E-3,-1.993257344E-2,2.677020843E-2
5.001726833E0,-1.449830140E-2,5.757426631E-3,-1.828541279E-2,2.403549512E-2
5.011676833E0,-1.576156722E-2,3.189085121E-3,-2.127918720E-2,2.667210290E-2
5.021626833E0,-1.468158420E-2,-1.056998433E-4,-1.738728046E-2,2.275692442E-2
5.031576833E0,-1.429679858E-2,1.397868264E-3,-6.759966016E-3,1.587607086E-2
5.041525833E0,-1.841071451E-2,-7.292147151E-3,-1.663883686E-2,2.586466143E-2
5.051475833E0,-1.100770324E-2,-1.032394902E-2,-2.112949848E-2,2.596553793E-2
5.061425833E0,-1.783409910E-2,-4.497792483E-3,-2.053074360E-2,2.756440931E-2
5.071375833E0,-1.297161395E-2,-1.561239470E-2,-1.319599628E-2,2.421041005E-2
5.081324833E0,-1.473947621E-2,-1.302139294E-2,-1.080097675E-2,2.243813566E-2
5.091274833E0,-2.133151750E-2,8.504478238E-4,-1.723759174E-2,2.743886786E-2
5.101224833E0,-1.119758243E-2,-6.335149810E-3,-2.292576313E-2,2.628898230E-2
5.111174833E0,-1.371941802E-2,-8.519329252E-3,-6.909070015E-3,1.756521136E-2
5.121123833E0,-6.152780636E-3,7.218862809E-3,-1.693762958E-2,1.941267590E-2
5.131073833E0,-1.073185627E-3,1.064878241E-2,-1.274634540E-2,1.664384617E-2
5.141023833E0,4.984899808E-3,6.002484353E-3,-1.050101459E-2,1.308244442E-2
5.150973833E0,-4.316521946E-3,-4.240373382E-3,-1.154883564E-2,1.303797272E-2
5.160922833E0,-1.419456139E-2,5.936527303E-3,-7.806617618E-3,1.725315067E-2
5.170872833E0,-4.019736922E-3,8.923125174E-4,-8.105995059E-3,9.091845932E-3
5.180822833E0,-1.426650270E-2,-8.083576926E-3,-5.411598086E-3,1.726738860E-2
5.190772833E0,-1.257134006E-2,-1.147956669E-2,-1.529163837E-2,2.288347103E-2
5.200721833E0,-1.374016193E-2,-1.768860622E-2,-2.127977192E-2,3.089510532E-2
5.210671833E0,-1.711297753E-2,-8.606286028E-3,-8.556230664E-3,2.097930509E-2
5.220621833E0,-2.926451720E-2,-1.345354786E-2,-1.140031636E-2,3.416690109E-2
5.230571833E0,-2.846500411E-2,-1.525370913E-2,-7.058174014E-3,3.305676816E-2
5.240520833E0,-1.959830456E-2,-6.922895482E-3,-7.057004571E-3,2.195042909E-2
5.250470833E0,-1.959730414E-2,-7.060812113E-3,-1.394268572E-2,2.506607034E-2
5.260420833E0,-1.335838443E-2,-4.708641709E-3,-1.319482684E-2,1.935771672E-2
5.270370833E0,-1.550723618E-2,2.487633945E-3,-1.394327044E-2,2.100184485E-2
5.280319833E0,-1.175097571E-2,2.852315193E-3,-6.758211851E-3,1.385260118E-2
5.290269833E0,-4.304818378E-3,3.712543398E-3,-8.404203057E-3,1.014618494E-2
5.300219833E0,-1.010585245E-2,6.399663328E-3,-1.469112933E-2,1.894500529E-2
5.310169833E0,-4.073394262E-3,-3.959798394E-4,-1.139739275E-2,1.210990926E-2
5.320118833E0,6.968373572E-4,-6.853462080E-4,-2.666505754E-2,2.668296414E-2
5.330068833E0,-1.029794033E-2,2.423074746E-3,-1.588746965E-2,1.908744504E-2
5.340018833E0,-8.865824745E-3,1.237403308E-3,-9.600543380E-3,1.312647891E-2
5.349968833E0,-5.122067265E-3,2.510438086E-3,-1.079863787E-2,1.221263494E-2
5.359917833E0,-1.347187066E-2,2.745925561E-3,-1.558926165E-2,2.078596847E-2
5.369867833E0,-2.431560289E-2,-3.453671630E-3,-1.169735491E-2,2.720302380E-2
5.379817833E0,-2.390304985E-2,-8.044450830E-3,-1.708614886E-2,3.046318211E-2
5.389767833E0,-2.798893112E-2,-7.357622262E-3,-2.716616392E-3,2.906707545E-2
5.399716833E0,-1.958711720E-2,-1.509139865E-2,-1.394385517E-2,2.838726070E-2
5.409666833E0,-2.376141933E-2,-4.161657526E-3,-1.514194965E-2,2.848162708E-2
5.419616833E0,-2.367263301E-2,2.243983210E-3,-2.382448018E-2,3.366058333E-2
5.429566833E0,-2.409895670E-2,-7.021432486E-4,-1.604066670E-2,2.895782636E-2
5.439515833E0,-1.976205173E-2,-6.060335243E-3,-2.307662129E-2,3.098058750E-2
5.449465833E0,-1.176478975E-2,-3.316351140E-3,-1.738844991E-2,2.125480306E-2
5.459415833E0,-3.806946238E-3,6.220432464E-5,-1.424440205E-2,1.474448028E-2
5.469365833E0,-1.060202981E-3,-2.601700332E-3,-2.202821553E-2,2.220664662E-2
5.479315833E0,-2.303384983E-3,-5.104578151E-3,-1.873506367E-2,1.955415330E-2
5.489264833E0,-4.109978189E-3,1.022566098E-3,-1.035249531E-2,1.118533510E-2
5.499214833E0,-9.976014567E-3,-3.052534363E-3,-1.603949726E-2,1.913385233E-2
5.509164833E0,-7.301445594E-3,5.371752509E-3,-9.004712105E-3,1.277699780E-2
5.519114833E0,-9.768143767E-3,7.556779340E-3,-1.813630879E-2,2.194190610E-2
5.529063833E0,-1.467819236E-2,-1.926369765E-3,-2.427354634E-2,2.843176539E-2
5.539013833E0,-2.113400723E-2,7.193751759E-3,-2.098097920E-2,3.063654377E-2
5.548963833E0,-2.555672923E-2,-4.433171614E-3,-1.469346821E-2,2.981102863E-2
5.558913833E0,-2.342876072E-2,-1.081367617E-2,-1.903502584E-2,3.206516225E-2
5.568862833E0,-1.677451282E-2,4.413923768E-3,-1.933381855E-2,2.597428619E-2
5.578812833E0,-1.856741989E-2,-8.369910051E-3,-1.529222310E-2,2.546873697E-2
5.588762833E0,-1.755517550E-2,-5.488155498E-3,-1.918296039E-2,2.657611723E-2
5.598712833E0,-1.987444161E-2,-1.056486116E-2,-2.502082050E-2,3.365488343E-2
5.608661833E0,-2.019507459E-2,-6.766946130E-3,-1.035191059E-2,2.368110324E-2
5.618611833E0,-1.763143598E-2,-2.011481699E-2,-8.706504107E-3,2.812963937E-2
5.628561833E0,-1.056463047E-2,-3.074493399E-4,-7.209616899E-3,1.279392504E-2
5.638511833E0,-5.250258332E-3,-1.102024277E-3,-1.050276875E-2,1.179355000E-2
5.648460833E0,-1.507402831E-2,-2.848329493E-3,-1.424557149E-2,2.093503326E-2
5.658410833E0,-1.069342910E-2,4.195052893E-3,-2.232934713E-2,2.511070764E-2
5.668360833E0,-1.024466672E-2,1.603278438E-2,-1.379709005E-2,2.350240552E-2
5.678310833E0,-1.786042985E-2,2.949774116E-3,-1.723876119E-2,2.499742004E-2
5.688259833E0,-1.507726026E-2,1.603930083E-3,-7.808956504E-3,1.705509221E-2
5.698209833E0,-1.517324596E-2,1.343703176E-2,-1.604300559E-2,2.584877645E-2
5.708159833E0,-1.842264191E-2,-4.119409109E-4,-1.783927023E-2,2.564767032E-2
5.718109833E0,-1.362329527E-2,1.160169812E-3,-2.262989402E-2,2.643959666E-2
5.728058833E0,-1.667774825E-2,-1.588843809E-3,-1.933732688E-2,2.558522860E-2
5.738008833E0,-2.026838634E-2,8.062858139E-3,-1.514545798E-2,2.655564090E-2
5.747958833E0,-1.501360784E-2,-1.078787077E-2,-9.306428432E-3,2.069773384E-2
5.757908833E0,-9.618455046E-3,-2.192459190E-3,-1.783868551E-2,2.038480453E-2
5.767857833E0,-9.299546534E-3,-5.458862318E-3,-1.783927023E-2,2.084515066E-2
5.777808458E0,-6.359561936E-3,-1.188494547E-2,-1.454553366E-2,1.983099862E-2
5.787758458E0,-9.512940212E-3,2.878885763E-4,-1.259958029E-2,1.579013410E-2
5.797708458E0,-9.751157148E-3,2.221482850E-3,-2.307779074E-2,2.515162971E-2
5.807658458E0,-1.283202081E-2,-1.219507630E-3,-1.798778951E-2,2.212935897E-2
5.817607458E0,-1.276379340E-2,-4.052428796E-3,-1.229903340E-2,1.818248673E-2
5.827557458E0,-1.778459420E-2,7.163094990E-3,-2.868643999E-3,1.938635703E-2
5.837507458E0,-1.596022637E-2,-1.057114920E-3,-1.514253438E-2,2.202595435E-2
5.847457458E0,-2.290607217E-2,-1.814950614E-3,-1.514194965E-2,2.751837254E-2
5.857406458E0,-1.772562868E-2,-1.019898763E-2,-1.304630756E-2,2.425744014E-2
5.867356458E0,-1.966511357E-2,-1.374208283E-2,-1.035074115E-2,2.612851650E-2
5.877306458E0,-1.255238229E-2,-1.338762964E-2,-1.319424212E-2,2.260263157E-2
5.887256458E0,-2.275655248E-2,-1.217278836E-2,-1.334451556E-2,2.905363235E-2
5.897205458E0,-2.521833076E-2,-8.413599716E-3,-2.112891376E-2,3.395856097E-2
5.907155458E0,-1.806131140E-2,-7.576945382E-3,-1.184762836E-2,2.289077037E-2
5.917105458E0,-1.738096501E-2,-4.021155329E-3,-9.602882266E-3,2.026037963E-2
5.927055458E0,-1.760107614E-2,-9.112748550E-3,-1.124887347E-2,2.278984910E-2
5.937004458E0,-2.753235722E-2,-4.007702165E-3,-9.453193545E-3,2.938460888E-2
5.946954458E0,-1.906097742E-2,4.148528699E-3,-2.142712176E-2,2.897676134E-2
5.956904458E0,-1.206901171E-2,4.915137501E-3,5.765354633E-4,1.304423295E-2
5.966854458E0,-1.184308763E-2,2.286124276E-4,-3.714560688E-2,3.898855086E-2
5.976803458E0,-1.828047920E-2,-5.127976150E-3,-3.166851997E-3,1.924840281E-2
5.986753458E0,-2.021941134E-2,-1.022600359E-3,-3.316540718E-3,2.051511026E-2
5.996703458E0,-1.445423030E-2,-4.236284900E-4,-2.726732075E-2,3.086439722E-2
6.006653458E0,-1.350949841E-2,4.819725102E-3,5.065442920E-3,1.521167345E-2
6.016602458E0,-2.132291798E-2,3.284901800E-4,-2.801634908E-2,3.520923959E-2
6.026552458E0,-1.534737650E-2,-4.152295128E-3,-1.334743917E-2,2.075903786E-2
6.036502458E0,-1.049328530E-2,-8.169994662E-3,-5.563625693E-3,1.441567827E-2
6.046452458E0,-1.881791598E-2,-9.609206852E-3,-2.622066915E-2,3.367453502E-2
6.056402458E0,-1.654462131E-2,-1.473656859E-2,-7.210201621E-3,2.329974153E-2
6.066351458E0,-1.834925022E-2,-5.614085337E-3,-2.023312032E-2,2.788533837E-2
6.076301458E0,-2.170355801E-2,-5.708563551E-3,-9.305843711E-3,2.429466722E-2
6.086251458E0,-1.754637270E-2,-8.542649592E-3,-4.366115928E-3,1.999787552E-2
6.096201458E0,-1.664489421E-2,-8.875388140E-3,-2.053249776E-2,2.788204588E-2
6.106150458E0,-1.718077097E-2,1.289438959E-3,-1.768782735E-2,2.469211980E-2
6.116100458E0,-1.894859439E-2,5.047437607E-3,-1.843568623E-2,2.691468712E-2
6.126050458E0,-2.277732380E-2,-3.797124743E-3,-1.110035419E-2,2.562113383E-2
6.136000458E0,-6.615117237E-3,-4.283786674E-3,5.964159966E-3,9.883410769E-3
6.145949458E0,-1.589875523E-2,-2.503284384E-3,-1.768724263E-2,2.391391650E-2
6.155899458E0,-1.147590989E-2,1.099077600E-2,-8.855608106E-3,1.819108188E-2
6.165849458E0,-1.084168114E-2,7.458719707E-3,-1.125121236E-2,1.731370351E-2
6.175799458E0,-1.035717537E-2,-1.131148436E-3,-2.232876241E-2,2.463989061E-2
6.185748458E0,-2.033297067E-2,-5.481362678E-3,-1.918529928E-2,2.848772966E-2
6.195698458E0,-1.484895618E-2,1.336598124E-3,-1.693996847E-2,2.256635828E-2
6.205648458E0,-1.409865792E-2,1.104228403E-3,-9.755494595E-3,1.718025466E-2
6.215598458E0,-1.280271850E-2,-3.905097235E-3,-1.259958029E-2,1.838229607E-2
6.225548458E0,-1.492735456E-2,-6.324638526E-3,-1.140207052E-2,1.982004487E-2
6.235497458E0,-1.519727208E-2,-1.480804623E-2,-1.888650656E-2,2.840660912E-2
6.245447458E0,-2.104541735E-2,-9.502842345E-3,-1.499459982E-2,2.753273738E-2
6.255397458E0,-9.355268672E-3,-1.386896969E-2,-1.679086447E-2,2.370237334E-2
6.265347458E0,-1.471152378E-2,-1.032388279E-2,-1.259958029E-2,2.194905262E-2
6.275296458E0,-1.748899918E-2,-1.011843767E-2,-1.813747823E-2,2.715172167E-2
6.285246458E0,-1.656071029E-2,-8.213780257E-3,-2.157973409E-2,2.841492979E-2
6.295196458E0,-1.841266510E-2,-3.202572546E-3,-1.499284565E-2,2.395971886E-2
6.305146458E0,-1.043404341E-2,1.514109084E-5,-2.232817769E-2,2.464583150E-2
6.315095458E0,-1.597429395E-2,-9.962666470E-3,-1.155058980E-2,2.208730212E-2
6.325045458E0,-2.338397470E-2,-2.935434734E-3,-7.958060503E-3,2.487484225E-2
6.334995458E0,-1.188742368E-2,3.080749463E-3,-2.098097920E-2,2.431056041E-2
6.344945458E0,-1.470782130E-2,2.440088773E-3,-1.948467672E-2,2.453419384E-2
6.354895458E0,-1.600316914E-2,4.517302997E-3,-1.798720479E-2,2.449585649E-2
6.364844458E0,-1.190986009E-2,6.577487206E-3,-1.978405416E-2,2.401076642E-2
6.374794458E0,-1.782368375E-2,-3.735617059E-4,-1.005545676E-2,2.046791297E-2
6.384744458E0,-1.415176023E-2,-1.153974733E-2,-1.454670310E-2,2.334619149E-2
6.394694458E0,-1.773048690E-2,-5.700685799E-3,-1.664234519E-2,2.497670190E-2
6.404643458E0,-1.375449446E-2,-8.697214799E-3,-1.723993063E-2,2.370744337E-2
6.414593458E0,-1.386216088E-2,-4.654136980E-3,-1.469463766E-2,2.073048169E-2
6.424543458E0,-1.391118842E-2,-4.452143088E-3,-1.289895773E-2,1.948655567E-2
6.434493458E0,-1.533646322E-2,-8.604479330E-3,-1.649265647E-2,2.410916602E-2
6.444442458E0,-1.187733038E-2,-1.268793491E-2,-2.517401755E-2,3.059061668E-2
6.454392458E0,-1.710312862E-2,-5.854798760E-3,-1.245047629E-2,2.195017169E-2
6.464342458E0,-1.962035039E-2,-3.567715175E-4,-1.379767478E-2,2.398877372E-2
6.474292458E0,-2.105999884E-2,-3.287391434E-4,-7.510748506E-3,2.236164045E-2
6.484242458E0,-2.395961481E-2,-1.093269442E-3,-7.061682343E-3,2.500251462E-2
6.494191458E0,-1.403607672E-2,7.869004668E-4,-1.679261863E-2,2.190029001E-2
6.504141458E0,-2.043578116E-2,3.103905350E-3,-1.334977806E-2,2.460633972E-2
6.514091458E0,-1.700318235E-2,-1.486734522E-3,-1.933732688E-2,2.579245627E-2
6.524041458E0,-2.129897866E-2,-9.936132445E-4,-1.374680400E-3,2.136641068E-2
6.533991458E0,-1.690738623E-2,5.360905468E-3,-8.709427714E-3,1.975988734E-2
6.543940458E0,-2.210123720E-2,8.723170955E-3,-2.951615989E-2,3.789145144E-2
6.553890458E0,-1.743641763E-2,3.867704747E-3,-4.765480757E-4,1.786658607E-2
6.563840458E0,-2.167371209E-2,-3.631367600E-3,-1.200199485E-2,2.503965868E-2
6.573790458E0,-1.621728231E-2,-7.115483580E-3,-7.211371064E-3,1.912156439E-2
6.583739458E0,-1.445376435E-2,-1.318329458E-2,-1.469522238E-2,2.446753197E-2
6.593689458E0,-1.468625284E-2,-1.004812261E-2,-2.577218771E-2,3.131862784E-2
6.603639458E0,-1.371239907E-2,-8.951136991E-3,-7.741713524E-4,1.639365984E-2
6.613589458E0,-2.189765131E-2,-8.474399338E-3,-4.815766811E-3,2.396902558E-2
6.623538458E0,-1.069562409E-2,-2.209907190E-3,-1.080331564E-2,1.536202113E-2
6.633488458E0,-1.192908966E-2,-1.930111069E-3,-9.755494595E-3,1.553055645E-2
6.643438458E0,-8.841903694E-3,4.198405906E-3,-2.427588522E-2,2.617488255E-2
6.653388458E0,-1.108611303E-2,3.693073997E-3,-9.456701875E-3,1.503229550E-2
6.663338458E0,-1.830273745E-2,-5.099123796E-3,-1.170144796E-2,2.231401233E-2
6.673287458E0,-1.636993118E-2,-3.944680144E-3,-1.828833640E-2,2.485957354E-2
6.683237458E0,-1.139541931E-2,5.664079031E-3,-1.409588277E-2,1.899029446E-2
6.693187458E0,-1.731453516E-2,-2.920428403E-3,-1.544249654E-2,2.338359958E-2
6.703137458E0,-1.264160487E-2,2.666526767E-3,-6.311484575E-3,1.437899079E-2
6.713086458E0,-1.763838868E-2,5.019402949E-3,-6.610277295E-3,1.949366377E-2
6.723036458E0,-1.021435713E-2,-1.474642663E-3,-1.693938375E-2,1.983558379E-2
6.732986458E0,-1.335148882E-2,-3.710615644E-3,-1.978346944E-2,2.415401799E-2
6.742936458E0,-1.085474373E-2,-3.954876226E-3,-1.993315816E-2,2.303903864E-2
6.752886458E0,-1.571787299E-2,-3.345703706E-3,-1.274868429E-2,2.051278176E-2
6.762835458E0,-2.546575478E-2,-5.889537160E-3,-4.964870811E-3,2.660528625E-2
6.772785458E0,-1.723479148E-2,-1.199647654E-2,-1.783751607E-2,2.755232234E-2
6.782734833E0,-1.445619917E-2,-1.000699339E-2,-1.020339131E-2,2.032807923E-2
6.792684833E0,-8.139388142E-3,-3.055467107E-3,-5.861833692E-3,1.048554304E-2
6.802633833E0,-1.273467153E-2,-9.938919009E-3,-1.544249654E-2,2.234781129E-2
6.812583833E0,-5.144907951E-3,-9.297525133E-3,-8.257437944E-3,1.345731522E-2
6.822533833E0,-1.325435424E-2,-4.549300515E-3,-9.753740430E-3,1.707364911E-2
6.832483833E0,-1.323117094E-2,-1.236996744E-3,-4.364946485E-3,1.398738014E-2
6.842433833E0,-1.158574162E-2,-4.477297536E-3,-1.199907124E-2,1.727001195E-2
6.852382833E0,-2.050566909E-2,-3.316095325E-3,-1.125062764E-2,2.362319994E-2
6.862332833E0,-1.616547963E-2,2.398431930E-4,-1.110093892E-2,1.961150431E-2
6.872282833E0,-1.420288454E-2,7.403988854E-3,-2.367479146E-2,2.858385437E-2
6.882232833E0,-1.639939795E-2,-3.230072733E-3,-1.080097675E-2,1.990062114E-2
6.892181833E0,-1.436662028E-2,-2.262685164E-3,-5.861248970E-3,1.568036230E-2
6.902131833E0,-1.780918448E-2,4.704635453E-3,-1.244813740E-2,2.223188637E-2
6.912081833E0,-1.794544745E-2,2.519916971E-3,-1.589039326E-2,2.410173569E-2
6.922031833E0,-1.632896869E-2,-5.024590068E-3,-1.768665791E-2,2.459064033E-2
6.931981833E0,-1.882617745E-2,-2.799034724E-3,-1.274751484E-2,2.290761200E-2
6.941930833E0,-1.542096462E-2,-9.676219141E-3,-2.262697041E-2,2.904161078E-2
6.951880833E0,-1.670648412E-2,-6.516922843E-3,-9.753740430E-3,2.041353344E-2
6.961830833E0,-1.663263790E-2,-1.119356703E-2,-9.753155708E-3,2.229494635E-2
6.971780833E0,-2.254491525E-2,-4.719045642E-3,-7.807787061E-3,2.432085800E-2
6.981730833E0,-1.892739139E-2,-5.575724405E-3,-1.274751484E-2,2.349114689E-2
6.991679833E0,-2.095314326E-2,-1.017139836E-2,-5.563040972E-3,2.394658602E-2
7.001629833E0,-1.120743133E-2,-8.533207253E-3,-2.719540000E-3,1.434635985E-2
7.011579833E0,-1.676827960E-2,-1.093328371E-2,-4.516389370E-3,2.052095676E-2
7.021529833E0,-2.098118705E-2,1.970415744E-3,-1.379650533E-2,2.518801913E-2
7.031478833E0,-2.088412784E-2,1.465915237E-3,-7.209616899E-3,2.214213809E-2
7.041428833E0,-1.551798272E-2,4.358229039E-3,-1.304689229E-2,2.073700428E-2
7.051378833E0,-1.148524716E-2,1.675124501E-3,-2.187794209E-2,2.476613200E-2
7.061328833E0,-1.297794996E-2,-1.016823950E-3,-1.229786396E-2,1.790805891E-2
7.071278833E0,-2.480162757E-3,-3.442854281E-3,-2.202821553E-2,2.243316144E-2
7.081227833E0,-1.351865524E-2,-5.669736669E-3,-4.065569043E-3,1.521278426E-2
7.091177833E0,-1.903389751E-2,-8.011128553E-3,-1.514311910E-2,2.560823092E-2
7.101127833E0,-1.514199077E-2,-1.504145520E-2,-3.190884054E-2,3.838879216E-2
7.111077833E0,-1.954912400E-2,-9.091869879E-3,1.329715312E-2,2.533070524E-2
7.121027833E0,-1.698840899E-2,1.128770721E-3,-2.786724508E-2,3.265675293E-2
7.130976833E0,-2.117367237E-2,2.159591443E-3,-8.557984829E-3,2.293964562E-2
7.140926833E0,-2.044320667E-2,1.253478583E-3,-7.809541225E-3,2.191996445E-2
7.150876833E0,-1.697374984E-2,2.272269116E-3,-1.694113791E-2,2.408886764E-2
7.160826833E0,-1.949888134E-2,-3.014806118E-3,-9.456701875E-3,2.187977696E-2
7.170775833E0,-2.012575996E-2,-4.058486146E-3,-2.412678123E-2,3.167994786E-2
7.180725833E0,-2.730996431E-2,-5.678946034E-3,1.222068071E-4,2.789443517E-2
7.190675833E0,-3.001704929E-2,-3.660756710E-3,-1.005779564E-2,3.186822306E-2
7.200625833E0,-1.295412941E-2,-2.204178746E-3,-8.860285878E-3,1.584842385E-2
7.210575833E0,-1.308817911E-2,-1.062053076E-3,-6.764643788E-3,1.477121507E-2
7.220524833E0,-1.058479880E-2,1.327233443E-3,-2.188203514E-2,2.434384883E-2
7.230474833E0,-4.044334057E-3,-7.851531543E-4,-1.574421287E-2,1.627431541E-2
7.240424833E0,-1.804094207E-2,-6.003923316E-3,-1.738961935E-2,2.576667513E-2
7.250374833E0,-2.201865442E-2,-3.683949143E-3,-6.761720181E-3,2.332624023E-2
7.260323833E0,-2.075640501E-2,-1.049589142E-2,-3.917634487E-3,2.358685960E-2
7.270273833E0,-2.220528566E-2,-8.832950145E-3,-1.469405293E-2,2.805371475E-2
7.280223833E0,-2.035898621E-2,-8.389870527E-3,-1.259841084E-2,2.536923733E-2
7.290173833E0,-1.392451367E-2,-1.221241467E-2,-1.364681661E-2,2.300588526E-2
7.300123833E0,-1.815184731E-2,-7.309930909E-3,-1.873623312E-2,2.709190067E-2
7.310072833E0,-1.661152168E-2,3.304300394E-3,-2.719540000E-3,1.715391942E-2
7.320022833E0,-2.304828971E-2,-1.560889094E-3,-1.125179708E-2,2.569558271E-2
7.329972833E0,-1.674249475E-2,1.653074103E-3,-1.274868429E-2,2.110859388E-2
7.339922833E0,-1.953844598E-2,-2.059704554E-4,-4.515219927E-3,2.005443856E-2
7.349872833E0,-1.277455365E-2,-9.971549213E-3,-1.080214620E-2,1.947581518E-2
7.359821833E0,-1.498968679E-2,-1.347337586E-2,-1.529280782E-2,2.530005016E-2
7.369771833E0,-2.118298908E-2,-3.118196768E-3,-1.080273092E-2,2.398210109E-2
7.379721833E0,-1.696339387E-2,-5.760528396E-3,-1.424557149E-2,2.288835351E-2
7.389671833E0,-1.530778674E-2,1.058960448E-3,-8.707088828E-3,1.764265082E-2
7.399621833E0,-1.965804438E-2,-2.335679429E-3,-6.162380576E-3,2.073328342E-2
7.409570833E0,-1.544985124E-2,4.383895118E-3,-1.304806173E-2,2.069222933E-2
7.419520833E0,-1.472489243E-2,1.906288234E-3,-1.514311910E-2,2.120779215E-2
7.429470833E0,-2.083980321E-2,-7.618921995E-3,-1.649031758E-2,2.764554112E-2
7.439420833E0,-2.721127884E-2,-8.457782739E-3,-1.199965596E-2,3.091891862E-2
7.449370833E0,-2.658953710E-2,-9.605282822E-3,-1.469463766E-2,3.186216121E-2
7.459319833E0,-1.635243978E-2,-1.984718582E-4,-1.933557272E-2,2.532402121E-2
7.469269833E0,-1.709748697E-2,-1.608674093E-3,-1.274868429E-2,2.138786675E-2
7.479219833E0,-1.385855434E-2,-3.388845194E-3,-1.259899557E-2,1.903361472E-2
7.489169833E0,-1.635471928E-2,-7.612017256E-3,-2.232934713E-2,2.870573798E-2
7.499118833E0,-1.135274149E-2,-3.985658619E-3,-2.801751852E-2,3.049182773E-2
7.509068833E0,-7.647045732E-3,-1.941022065E-3,-6.612616181E-3,1.029424926E-2
7.519018833E0,-2.076452716E-2,-7.117340527E-4,-4.816936255E-3,2.132779943E-2
7.528968833E0,-7.993114104E-3,2.249081251E-3,-1.140323997E-2,1.410610227E-2
7.538918833E0,-1.085035375E-2,-8.632130264E-3,-2.158148825E-2,2.565159809E-2
7.548867833E0,-2.010463461E-2,-8.119487052E-3,-1.664234519E-2,2.733294818E-2
7.558817833E0,-1.451854053E-2,-3.086610383E-3,-1.514545798E-2,2.120613308E-2
7.568767833E0,-1.659172566E-2,-2.533002400E-3,-1.409763694E-2,2.191905173E-2
7.578717833E0,-1.819649171E-2,3.981268639E-3,-5.714483857E-3,1.948379163E-2
7.588667833E0,-1.592452638E-2,-6.902998961E-3,-1.349771261E-2,2.198704575E-2
7.598616833E0,-1.251330873E-2,-1.284298206E-2,-3.767945766E-3,1.832273175E-2
7.608566833E0,-2.040057453E-2,-6.880039503E-3,-7.060512900E-3,2.265765273E-2
7.618516833E0,-1.933086525E-2,-1.001834978E-2,-8.857362270E-3,2.350537279E-2
7.628466833E0,-1.363683295E-2,-5.654330626E-3,-1.708965719E-2,2.258298143E-2
7.638416833E0,-1.134657908E-2,2.433784744E-3,-1.544308126E-2,1.931727009E-2
7.648365833E0,-2.154587277E-2,3.325281849E-3,-1.484432638E-2,2.637491532E-2
7.658315833E0,-2.200634557E-2,-9.067487447E-3,-1.349654317E-2,2.736156522E-2
7.668265833E0,-1.073812832E-2,-5.399912791E-3,-1.634121358E-2,2.028550516E-2
7.678215833E0,-1.572668949E-2,-8.383011469E-3,2.369876504E-3,1.797831912E-2
7.688165833E0,-1.659036664E-2,6.286410070E-3,-2.636977315E-2,3.178245039E-2
7.698114833E0,-1.737814876E-2,8.157142207E-3,-1.050276875E-2,2.188257697E-2
7.708064833E0,-9.582321080E-3,-5.457009939E-3,-9.305258989E-3,1.442871025E-2
7.718014833E0,-1.694498657E-2,-2.679737820E-3,-2.202880025E-2,2.792098861E-2
7.727964833E0,-2.338933084E-2,-1.275672649E-2,2.742344141E-4,2.664338703E-2
7.737914833E0,-2.283132603E-2,-6.580278338E-3,-1.813747823E-2,2.989209976E-2
7.747863833E0,-1.124085639E-2,-1.689954959E-2,-2.120785117E-3,2.040709088E-2
7.757813833E0,-1.582016957E-2,-1.029549410E-2,-9.304674268E-3,2.104404731E-2
7.767763833E0,-1.210110972E-2,-1.222676547E-2,-1.663825214E-2,2.393244836E-2
7.777713833E0,-1.356567507E-2,-1.234994986E-2,-6.209743023E-4,1.835577323E-2
7.787668000E0,-1.374707580E-2,-9.478062484E-3,-2.546930194E-2,3.045490277E-2
7.797617000E0,-1.352727988E-2,-1.301601853E-2,-1.005077899E-2,2.129371263E-2
7.807567000E0,-1.065408602E-2,3.840197709E-3,-1.514019549E-2,1.890719934E-2
7.817517000E0,-1.895245447E-2,1.781107569E-3,-1.813338518E-2,2.629044566E-2
7.827467000E0,-1.700163375E-2,-7.619639193E-3,-7.206108570E-3,1.997604697E-2
7.837417000E0,-1.625121900E-2,8.897954738E-4,-1.513961077E-2,2.222839781E-2
7.847366000E0,-1.338619068E-2,8.988924623E-3,-8.702995777E-3,1.832301837E-2
7.857316000E0,-1.560504000E-2,-8.715480496E-4,-1.603715837E-2,2.239346596E-2
7.867266000E0,-1.774941269E-2,-5.947874556E-3,-1.798194230E-2,2.595706284E-2
7.877216000E0,-1.339133440E-2,-4.513394956E-3,-8.551552892E-3,1.651749460E-2
7.887166000E0,-1.083611486E-2,-3.607937624E-3,-1.723349869E-2,2.067443050E-2
7.897115000E0,-1.470980159E-2,2.536453628E-3,-1.813163102E-2,2.348548282E-2
7.907065000E0,-6.904225505E-3,-1.129321181E-2,-1.588688493E-2,2.067844471E-2
7.917015000E0,-1.023489319E-2,-5.458823489E-3,-2.501731217E-2,2.757567226E-2
7.926965000E0,-1.022017693E-2,-3.503105727E-3,-1.184470475E-2,1.603186816E-2
7.936915000E0,-6.794014627E-3,-2.229913347E-4,-7.204354405E-3,9.905103850E-3
7.946865000E0,-9.926178474E-3,-1.147649461E-2,-1.528754532E-2,2.153945194E-2
7.956814000E0,-1.234463712E-2,-4.405568645E-3,-1.349069595E-2,1.880951828E-2
7.966764000E0,-2.700271597E-3,-2.905266755E-3,-2.322046280E-2,2.355678107E-2
7.976714000E0,-8.166947714E-3,-6.874052959E-3,-4.808165431E-3,1.170769379E-2
7.986664000E0,-1.030477884E-2,5.160396220E-5,-2.366894424E-2,2.581491916E-2
7.996614000E0,-9.798049077E-3,-1.110187538E-3,-2.336898208E-2,2.536421900E-2
8.006563000E0,-1.863742888E-3,-2.115221126E-3,-8.251006007E-3,8.719334728E-3
8.016513000E0,-1.246433373E-2,-1.479112585E-3,-5.406920314E-3,1.366682760E-2
8.026463000E0,-1.022390682E-2,1.985723572E-4,-8.251006007E-3,1.313951299E-2
8.036413000E0,-4.489261487E-3,-4.073682055E-4,-1.019695938E-2,1.114887430E-2
8.046363000E0,-6.058165377E-3,-6.973645203E-3,-1.274166763E-2,1.573795378E-2
8.056312000E0,-1.903675031E-2,1.046820623E-3,-1.004727066E-2,2.155090122E-2
8.066262000E0,-2.535067198E-2,-2.701100714E-3,-1.244229019E-2,2.836834680E-2
8.076212000E0,-2.104039468E-2,-9.754363981E-3,-4.508787990E-3,2.362572738E-2
8.086162000E0,-2.374889349E-2,-6.430386335E-3,-1.408886611E-2,2.835235368E-2
8.096112000E0,-2.264891346E-2,-1.067717110E-2,-2.321987808E-2,3.414876281E-2
8.106061000E0,-2.578266702E-2,-9.430855354E-3,-1.154532731E-2,2.978223520E-2
8.116011000E0,-2.020389566E-2,-2.092357599E-3,-8.401864171E-3,2.198105279E-2
8.125961000E0,-2.519597430E-2,-1.017219550E-2,-1.932855606E-2,3.334522097E-2
8.135911000E0,-2.691549881E-2,-6.028435940E-3,-1.004785538E-2,2.935550228E-2
8.145861000E0,-1.437698081E-2,-9.610216410E-3,1.300479233E-2,2.163743193E-2
8.155810000E0,-1.199104274E-2,-7.118642447E-3,-1.723174453E-2,2.216739037E-2
8.165760000E0,-7.598758237E-3,-6.741702603E-4,-2.890746474E-2,2.989710939E-2
8.175710000E0,-1.066924995E-2,2.652596233E-3,-1.498582900E-2,1.858613010E-2
8.185660000E0,-9.480570392E-3,-3.699117643E-4,-1.693236709E-2,1.940935612E-2
8.195610000E0,-8.027669778E-3,8.966440251E-3,-1.139446914E-2,1.657330564E-2
8.205560000E0,-5.586196859E-3,-3.078047410E-3,-2.636392593E-2,2.712446427E-2
8.215509000E0,-1.692155431E-2,-4.789474898E-3,-2.037754655E-2,2.691695513E-2
8.225459000E0,-2.174670407E-2,-6.391082082E-3,1.270366073E-2,2.598361145E-2
8.235409000E0,-1.879560976E-2,-6.051598680E-3,-3.759116471E-2,4.246165867E-2
8.245359000E0,-2.087946377E-2,-2.269217600E-3,-7.952798009E-3,2.245770140E-2
8.255309000E0,-1.599400089E-2,-3.126684367E-4,-7.354043126E-3,1.760646973E-2
8.265258000E0,-7.669824748E-3,-4.769852464E-3,5.819149017E-3,1.074431010E-2
8.275208000E0,-2.126323298E-2,-5.956129180E-3,-1.498758316E-2,2.668760388E-2
8.285158000E0,-1.921843426E-2,-9.139120406E-3,-2.172474504E-2,3.041112106E-2
8.295108000E0,-1.821496298E-2,-5.128606553E-3,-1.394093156E-2,2.350397954E-2
8.305058000E0,-2.046789974E-2,-4.266037177E-3,-1.528929949E-2,2.590167314E-2
8.315007000E0,-1.152767831E-2,-4.323189142E-3,-7.656344175E-3,1.449817015E-2
8.324957000E0,-2.955013770E-3,8.923842371E-3,-6.010352969E-3,1.115757195E-2
8.334907000E0,-2.303138303E-3,1.003082765E-2,-1.633887470E-2,1.931012107E-2
8.344857000E0,-7.707758560E-3,1.072750740E-2,-1.693704486E-2,2.147911650E-2
8.354807000E0,-7.948764344E-3,2.213746710E-3,7.761594057E-3,1.132810096E-2
8.364757000E0,-8.137784726E-3,1.143237326E-2,-3.519906878E-2,3.789323346E-2
8.374706000E0,-1.412576524E-2,1.289189539E-2,2.521904111E-3,1.928984735E-2
8.384656000E0,-1.243552478E-2,4.795673860E-3,2.033427715E-2,2.431303337E-2
8.394606000E0,-1.857147639E-2,-6.074432514E-3,-5.316346943E-2,5.664055921E-2
8.404556000E0,-1.848541726E-2,-2.418952002E-3,2.370461226E-3,1.879311221E-2
8.414506000E0,-1.901850973E-2,-8.728659572E-4,-3.370510519E-2,3.871046012E-2
8.424455000E0,-8.853223538E-3,6.439908617E-3,-1.649031758E-2,1.979349802E-2
8.434405000E0,1.341848284E-2,9.004988477E-3,1.299952984E-2,2.073965466E-2
8.444355000E0,1.050365726E-2,2.880296860E-2,-4.747237444E-2,5.651162846E-2
8.454305000E0,1.178040365E-2,2.097614840E-2,3.201642931E-2,4.004782712E-2
8.464255000E0,6.560342987E-3,3.637973126E-3,-1.258613169E-2,1.465208721E-2
8.474205000E0,-6.885841037E-3,-4.817748469E-2,5.981701612E-3,4.903331105E-2
8.484154000E0,5.045835561E-2,-1.362889033E-1,1.946187258E-2,1.466269937E-1
8.494104000E0,8.346564129E-2,-1.172161867E0,7.543668330E-2,1.177548576E0
8.504054000E0,-2.112577088E-1,-1.410096400E0,4.071006954E-2,1.426414732E0
8.514004000E0,-7.452176215E-1,-3.941535712E-1,-5.180633068E-2,8.446243171E-1
8.523954000E0,-9.001466169E-1,-1.899262621E-1,3.142819941E-2,9.205018461E-1
8.533903000E0,-5.876061064E-1,2.571807538E-1,9.862557113E-2,6.489606149E-1
8.543853000E0,-2.792505211E-1,5.753936118E-1,1.352648091E-1,6.537241242E-1
8.553803000E0,2.070039508E-1,1.789405134E0,5.242484915E-1,1.876075118E0
8.563753000E0,-4.405749086E-1,2.041616302E0,8.027817786E-1,2.237579487E0
8.573703000E0,1.580882094E-1,1.242367850E0,8.018696129E-2,1.254950081E0
8.583653000E0,1.423810716E-1,6.917728280E-1,6.662317514E-3,7.063047512E-1
8.593602000E0,3.402194022E-1,-5.181192208E-1,4.316280109E-1,7.553141786E-1
8.603552000E0,3.034939726E-1,-1.184474714E0,-5.951489049E-1,1.359886451E0
8.613502000E0,1.040065298E0,-1.278931220E0,-8.563288254E-1,1.857605972E0
8.623452000E0,7.573583416E-1,-4.351319548E-1,-2.554935032E-1,9.100595617E-1
8.633402000E0,6.518533020E-1,2.712915287E-1,-9.459216177E-2,7.123619150E-1
8.643351000E0,-5.683142781E-2,3.481841505E-1,1.200485998E-1,3.726575910E-1
8.653301000E0,-3.593902296E-1,4.410702774E-1,1.370664532E0,1.484057137E0
8.663251000E0,-3.393509445E-1,7.577357063E-1,1.982488527E0,2.149321573E0
8.673201000E0,-4.155590948E-1,8.517838577E-1,2.538979735E0,2.710100219E0
8.683151000E0,-4.986083047E-1,4.432037072E-1,3.493650541E0,3.556772958E0
8.693101000E0,-1.571363558E-1,2.492003643E-1,4.257910863E0,4.268090624E0
8.703050000E0,5.709687679E-1,-2.058266139E-1,4.429086932E0,4.470478831E0
8.713000000E0,7.619695289E-1,-7.488546628E-1,4.344540871E0,4.473970971E0
8.722950000E0,4.024581158E-1,-8.946125197E-1,4.078885492E0,4.195189025E0
8.732900000E0,-1.708224219E-1,-5.124244713E-1,3.403984659E0,3.446573762E0
8.742850000E0,-7.639994629E-1,-9.764703959E-2,3.177322606E0,3.269343829E0
8.752799000E0,-1.066269303E0,2.785316791E-1,3.750946741E0,3.909489938E0
8.762749000E0,-1.247773893E0,8.130095820E-1,3.809401941E0,4.090167162E0
8.772699000E0,-1.547345024E0,8.841772132E-1,3.965080549E0,4.347172613E0
8.782644958E0,-1.351200613E0,6.020866263E-1,4.226971491E0,4.478341142E0
8.792594958E0,-5.994847981E-1,2.707890885E-1,4.335671815E0,4.385288912E0
8.802544958E0,-1.824524242E-1,1.180026591E-1,4.347118324E0,4.352545375E0
8.812493958E0,2.324388638E-1,-9.644397497E-2,6.140737692E0,6.145892016E0
8.822443958E0,-1.290451807E-1,3.723743740E-1,3.684739303E0,3.705754858E0
8.832393958E0,-5.578569715E-1,-3.086379692E-1,2.754288248E0,2.827112582E0
8.842343958E0,-1.118358346E0,-9.881905550E-1,1.817763106E0,2.351915958E0
8.852293958E0,-1.471682345E0,-6.901170427E-1,2.860509937E0,3.290080175E0
8.862243958E0,-2.096872344E0,6.709077698E-1,4.065408829E0,4.623260734E0
8.872192958E0,-1.490074908E0,1.152352012E0,6.971234688E0,7.221243069E0
8.882142958E0,-2.838993353E0,-2.625019759E0,-2.514905578E0,4.612522310E0
8.892092958E0,-1.676214879E0,-3.062294426E0,-1.654134039E0,3.863094989E0
8.902042958E0,-2.128839657E-2,-3.217090982E0,2.124945996E0,3.855583363E0
8.911992958E0,-1.921300923E0,-1.242974206E0,1.722075176E0,2.863900317E0
8.921941958E0,-2.294012974E0,8.253830212E-1,1.749019731E0,3.000470409E0
8.931891958E0,-1.873560454E0,4.852832311E-1,1.483982402E0,2.438838322E0
8.941841958E0,-1.345897188E0,-6.101288867E-1,1.683129212E0,2.239781338E0
8.951791958E0,-1.323657450E0,-1.197172966E0,1.552402427E0,2.365427118E0
8.961741958E0,-1.300953004E0,-1.081341378E0,1.245744617E0,2.100870664E0
8.971691958E0,-1.267000854E0,-7.169604403E-1,1.312287101E0,1.959954303E0
8.981640958E0,-9.623999485E-1,-4.219432676E-1,1.489229693E0,1.822650505E0
8.991590958E0,-9.399849397E-1,8.586811602E-2,1.701936196E0,1.946158225E0
9.001540958E0,-1.129754058E0,6.416208208E-2,1.807486040E0,2.132479024E0
9.011490958E0,-1.257206475E0,-8.467388070E-1,1.756079074E0,2.319773360E0
9.021440958E0,-8.405399544E-1,-1.341365889E0,1.117207029E0,1.937503912E0
9.031390958E0,-6.019340140E-1,-1.541087480E0,6.726362067E-1,1.785977224E0
9.041339958E0,-8.551654487E-1,-1.543787724E0,8.134085083E-1,1.943250340E0
9.051289958E0,-9.390388602E-1,-1.053402212E0,9.946651769E-1,1.726501959E0
9.061239958E0,-9.162480947E-1,-7.010641998E-1,1.078851049E0,1.579531946E0
9.071189958E0,-1.165273700E0,-7.316521543E-1,1.009281462E0,1.706407554E0
9.081139958E0,-8.239427058E-1,-1.355309744E0,5.884415638E-1,1.691747487E0
9.091089958E0,-4.595681269E-1,-1.666820158E0,2.205180904E-1,1.743020519E0
9.101038958E0,-5.265538294E-1,-1.736701986E0,-2.020806500E-1,1.825987216E0
9.110988958E0,-4.855103955E-1,-2.507996508E0,-3.196731269E-2,2.554758059E0
9.120938958E0,-1.198318143E-1,-2.062071471E0,-5.494663632E-1,2.137384312E0
9.130888958E0,-3.706975387E-1,-1.903247060E0,-1.517668211E-1,1.944941954E0
9.140838958E0,-5.677810121E-1,-2.085272638E0,-2.914486170E-1,2.180752060E0
9.150788958E0,-7.799337834E-1,-1.969985425E0,-5.192795277E-1,2.181465221E0
9.160737958E0,-7.893783523E-1,-1.986332486E0,-1.453829480E0,2.585005820E0
9.170687958E0,-6.517462979E-1,-2.236707337E0,-2.035687372E0,3.093809306E0
9.180637958E0,-8.667941719E-1,-2.170340855E0,-2.182049027E0,3.197350390E0
9.190587958E0,-5.836320828E-1,-2.174739130E0,-2.219072719E0,3.161392166E0
9.200537958E0,-3.114538421E-1,-2.619618101E0,-1.639875603E0,3.106218680E0
9.210486958E0,-2.380891196E-1,-3.019452462E0,-1.266401076E0,3.282918105E0
9.220436958E0,-8.517795454E-1,-2.445559355E0,-8.978680301E-1,2.740885979E0
9.230386958E0,-1.314857975E0,-2.680187069E0,-9.073757489E-1,3.120189893E0
9.240336958E0,-1.182186552E0,-3.210749384E0,-1.562157483E0,3.761224887E0
9.250286958E0,-7.423353097E-1,-3.374715251E0,-2.644628397E0,4.351301426E0
9.260236958E0,-6.864575627E-1,-3.480751584E0,-3.019595718E0,4.658842547E0
9.270185958E0,-9.490773600E-1,-2.926172415E0,-2.917303358E0,4.239562681E0
9.280135958E0,-1.470664199E0,-1.923142796E0,-2.108261989E0,3.210311514E0
9.290085958E0,-2.101260679E0,-1.357370303E0,-1.340030385E0,2.837856940E0
9.300035958E0,-2.987497720E0,-1.288693001E0,-9.025058953E-1,3.376446234E0
9.309985958E0,-3.997039968E0,-1.148294921E0,-1.013820728E0,4.280507236E0
9.319935958E0,-3.769563399E0,-6.801194733E-1,-9.664663947E-1,3.950471871E0
9.329884958E0,-1.440023035E0,-2.487872146E0,-9.754605818E-1,3.035572023E0
9.339834958E0,-4.774722281E-1,-4.499183938E0,-4.356018517E-1,4.545369601E0
9.349784958E0,-9.030346298E-1,-3.172225004E0,-6.527422249E-1,3.362224774E0
9.359734958E0,-1.550140139E0,-1.714487829E0,-8.576613327E-1,2.465357160E0
9.369684958E0,-2.771712951E0,-1.022914245E0,-9.404076934E-2,2.955941458E0
9.379634958E0,-4.331598644E0,1.282692003E-1,-5.679802559E-2,4.333869613E0
9.389583958E0,-5.371183301E0,8.105129671E-1,-3.644540280E-1,5.444204998E0
9.399533958E0,-2.602521720E0,-7.387775713E-1,2.885956874E-1,2.720698269E0
9.409483958E0,1.097898939E0,-3.980773306E0,3.782405931E-1,4.146685923E0
9.419433958E0,1.129374501E0,-3.042392258E0,7.382869899E-1,3.328168429E0
9.429383958E0,-5.246706605E-2,-6.903661340E-1,7.727324988E-1,1.037532509E0
9.439333958E0,-1.371339301E0,-2.473617804E-1,1.433446671E0,1.999131984E0
9.449282958E0,-2.182796593E0,3.132049370E-1,2.102188048E0,3.046619912E0
9.459232958E0,-2.361249522E0,1.064596707E0,2.201797121E0,3.399525851E0
9.469182958E0,-2.517574832E0,6.522691852E-1,1.840681268E0,3.186180418E0
9.479132958E0,-3.057510234E0,4.862848592E-1,1.317674725E0,3.364685495E0
9.489082958E0,-3.249712306E0,1.773659313E-1,3.708099514E-1,3.275605099E0
9.499032958E0,-2.544632238E0,-7.569577342E-1,-1.242375451E-1,2.657738363E0
9.508981958E0,-5.786299360E-1,-1.934294021E0,2.475038677E-1,2.034100324E0
9.518931958E0,8.618240386E-1,-2.276953722E0,7.004748005E-1,2.533362168E0
9.528881958E0,3.609334195E-1,-1.638120269E0,8.775717598E-1,1.893104103E0
9.538831958E0,-1.054866355E0,-9.100208831E-1,9.285150415E-1,1.674222571E0
9.548781958E0,-2.186303169E0,-2.868836957E-1,6.470172892E-1,2.298011134E0
9.558731958E0,-2.745987541E0,-2.402217454E-1,-9.949037433E-3,2.756492889E0
9.568680958E0,-3.175340400E0,-4.296767950E-1,-3.153572971E-1,3.219760710E0
9.578630958E0,-3.136860459E0,-1.997221756E-1,-4.901381378E-1,3.181197554E0
9.588580958E0,-1.950251073E0,-8.014556301E-1,1.263815364E-2,2.108546916E0
9.598530958E0,4.389212430E-1,-1.606552321E0,8.071321070E-1,1.850709177E0
9.608480958E0,2.186012562E0,-1.917955731E0,1.146006905E0,3.125785811E0
9.618430958E0,2.180473495E0,-1.916037844E0,1.077144831E0,3.096111540E0
9.628379958E0,1.022179250E0,-1.616377982E0,3.435157335E-1,1.943072634E0
9.638329958E0,-1.822343230E-2,-1.440215993E0,-5.778335452E-1,1.551916817E0
9.648279958E0,-3.890608656E-1,-1.413957902E0,-1.267645948E0,1.938445654E0
9.658229958E0,1.228891772E-1,-1.595443781E0,-1.656815572E0,2.303384563E0
9.668179958E0,1.107921066E0,-1.956312296E0,-1.502654901E0,2.704185393E0
9.678129958E0,2.238675510E0,-2.231871690E0,-1.101411946E0,3.347540523E0
9.688078958E0,2.831918222E0,-2.241669869E0,-8.933083713E-1,3.720597326E0
9.698028958E0,3.035907696E0,-2.088865167E0,-7.870434129E-1,3.768226447E0
9.707978958E0,3.407683023E0,-1.922611869E0,-4.300106710E-1,3.936197297E0
9.717928958E0,3.773740357E0,-1.518233052E0,-8.248958568E-2,4.068531973E0
9.727878958E0,3.944330535E0,-1.053509509E0,9.004536688E-2,4.083593249E0
9.737828958E0,3.853164257E0,-7.939989683E-1,1.860648340E-1,3.938518665E0
9.747777958E0,3.575985770E0,-7.074224621E-1,1.009685504E-1,3.646685538E0
9.757727958E0,3.138343897E0,-7.898813590E-1,-2.622552234E-1,3.246828111E0
9.767677958E0,2.758593553E0,-9.189498737E-1,-7.111208260E-1,2.993325925E0
9.777627958E0,2.869142767E0,-1.111203108E0,-1.131244440E0,3.278180371E0
9.787577333E0,3.500544993E0,-1.475124163E0,-1.544352565E0,4.100589152E0
9.797527333E0,4.202433066E0,-1.912512266E0,-1.582477580E0,4.880817773E0
9.807476333E0,4.833991998E0,-2.096441112E0,-1.269653882E0,5.419830712E0
9.817426333E0,5.010165097E0,-1.846181744E0,-9.573143327E-1,5.424628288E0
9.827376333E0,4.661307932E0,-1.538016230E0,-6.863789177E-1,4.956248741E0
9.837326333E0,3.911332943E0,-1.394125900E0,-6.196060538E-1,4.198335870E0
9.847276333E0,3.012644548E0,-1.200100959E0,-7.837116694E-1,3.336236423E0
9.857226333E0,2.473568103E0,-1.025633493E0,-9.519594526E-1,2.841951798E0
9.867175333E0,2.767288948E0,-1.154955484E0,-1.007780482E0,3.163452511E0
9.877125333E0,3.412694671E0,-1.419866513E0,-7.486669672E-1,3.771340353E0
9.887075333E0,3.851103113E0,-1.515812598E0,-4.904516216E-1,4.167640317E0
9.897025333E0,3.948795469E0,-1.488035400E0,-3.923785758E-1,4.238065119E0
9.906975333E0,3.633274450E0,-1.434883040E0,-4.143173289E-1,3.928260609E0
9.916925333E0,2.986219811E0,-1.376824574E0,-5.413503548E-1,3.332598817E0
9.926874333E0,2.446795456E0,-1.434975134E0,-7.436160692E-1,2.932392623E0
9.936824333E0,2.265484993E0,-1.484474738E0,-8.765677198E-1,2.846833060E0
9.946774333E0,2.623326990E0,-1.541043625E0,-8.150503334E-1,3.149756657E0
9.956724333E0,3.249437487E0,-1.676330069E0,-5.942759156E-1,3.704333995E0
9.966674333E0,3.776722437E0,-1.818274738E0,-2.211463737E-1,4.197458887E0
9.976624333E0,4.083480819E0,-1.881483724E0,1.973540533E-1,4.500416117E0
9.986573333E0,3.944400117E0,-2.004495692E0,3.865990417E-1,4.441368492E0
9.996523333E0,3.362931942E0,-1.963414325E0,4.543776266E-1,3.920556859E0
1.000647333E1,2.713221499E0,-1.922824123E0,3.900184934E-1,3.348273874E0
1.001642333E1,2.481955349E0,-2.040037408E0,2.329964872E-1,3.221202003E0
1.002637333E1,2.544773741E0,-2.045410999E0,1.510148692E-1,3.268391812E0
1.003632333E1,2.871500364E0,-2.074170529E0,2.087643099E-1,3.548419403E0
1.004627333E1,3.400648237E0,-2.310519079E0,5.395434920E-1,4.146566535E0
1.005622233E1,3.641540658E0,-2.435575234E0,1.022141097E0,4.498623958E0
1.006617233E1,3.314098336E0,-2.323936100E0,1.245853375E0,4.235100638E0
1.007612233E1,2.573409310E0,-2.329613746E0,1.210273214E0,3.676179666E0
1.008607233E1,1.803128110E0,-2.182620592E0,1.095915563E0,3.035808715E0
1.009602233E1,1.605195183E0,-2.147088232E0,8.442012616E-1,2.810572045E0
1.010597133E1,1.704681464E0,-2.274883808E0,6.883215089E-1,2.924862686E0
1.011592133E1,1.905046248E0,-2.505313806E0,9.135678041E-1,3.277255652E0
1.012587133E1,2.109461399E0,-2.688781307E0,1.195266920E0,3.620502081E0
1.013582133E1,1.865251853E0,-2.666599894E0,1.334764675E0,3.517316620E0
1.014577133E1,1.258741808E0,-2.574867606E0,1.449034764E0,3.211553498E0
1.015572133E1,8.596822035E-1,-2.445868088E0,1.445060411E0,2.968084195E0
1.016567133E1,7.998213333E-1,-2.511698381E0,1.348966977E0,2.961090141E0
1.017562033E1,1.002841923E0,-2.746329018E0,1.270690301E0,3.187894108E0
1.018557033E1,1.057949592E0,-2.910372069E0,1.285597777E0,3.352951619E0
1.019552033E1,8.973651695E-1,-2.898208691E0,1.309813728E0,3.304616448E0
1.020547033E1,5.213324851E-1,-2.798379178E0,1.442477111E0,3.191152425E0
1.021542033E1,4.590222162E-1,-2.775576206E0,1.561041395E0,3.217355266E0
1.022537033E1,5.456723973E-1,-2.568691192E0,1.655151162E0,3.104103441E0
1.023531933E1,8.780336899E-1,-2.573188285E0,1.850206675E0,3.288693639E0
1.024526933E1,1.207237194E0,-2.924375566E0,1.939794497E0,3.711091050E0
1.025521933E1,1.166811006E0,-3.032122793E0,1.828649452E0,3.728159784E0
1.026516933E1,8.155541441E-1,-3.040160376E0,1.629293605E0,3.544333692E0
1.027511933E1,2.949253714E-1,-3.021976120E0,1.422086408E0,3.352857050E0
1.028506933E1,-2.431222567E-1,-2.720474970E0,1.258698539E0,3.007393307E0
1.029501833E1,-3.515116547E-1,-2.559330969E0,1.259219818E0,2.873911968E0
1.030496833E1,1.340137973E-2,-2.627550434E0,1.493265149E0,3.022257713E0
1.031491833E1,5.028829117E-1,-2.763531527E0,1.717254439E0,3.292257665E0
1.032486833E1,7.835988182E-1,-2.910951528E0,1.908800161E0,3.568078469E0
1.033481833E1,6.741737321E-1,-2.864279637E0,2.020424385E0,3.569414904E0
1.034476833E1,1.749899152E-1,-2.484347445E0,1.897337864E0,3.130893589E0
1.035471733E1,-3.500894657E-1,-2.003389399E0,1.682823110E0,2.639701752E0
1.036466733E1,-7.028647768E-1,-1.682052155E0,1.536749138E0,2.384306242E0
1.037461733E1,-6.882261993E-1,-1.770435743E0,1.450175848E0,2.389792462E0
1.038456733E1,-2.899093375E-1,-2.250697970E0,1.412632923E0,2.673054535E0
1.039451733E1,1.152618224E-1,-2.562494897E0,1.461101955E0,2.952030540E0
1.040446733E1,1.580404633E-2,-2.589130134E0,1.446604661E0,2.965891040E0
1.041441633E1,-6.624638057E-1,-2.276881801E0,1.276150431E0,2.692881162E0
1.042436633E1,-1.478859949E0,-1.768725432E0,9.752117828E-1,2.503288722E0
1.043431633E1,-1.895136095E0,-1.496753891E0,8.483128774E-1,2.559579607E0
1.044426633E1,-1.991191669E0,-1.456339690E0,8.424890506E-1,2.606828985E0
1.045421633E1,-2.154878916E0,-1.363425094E0,9.545611712E-1,2.722796019E0
1.046416633E1,-2.205787407E0,-1.228400021E0,1.149273745E0,2.774039444E0
1.047411633E1,-2.087164066E0,-1.155126223E0,1.290945641E0,2.712399505E0
1.048406533E1,-1.939155396E0,-1.138659879E0,1.371113598E0,2.633784819E0
1.049401533E1,-1.725950857E0,-1.145910426E0,1.309930673E0,2.451109021E0
1.050396533E1,-1.993883434E0,-7.713851541E-1,1.138254228E0,2.422029912E0
1.051391533E1,-2.650541393E0,-3.712426454E-1,1.023648948E0,2.865492619E0
1.052386533E1,-2.781286597E0,-2.425869441E-1,9.263132724E-1,2.941506390E0
1.053381533E1,-2.417745027E0,-5.157296830E-1,1.011480746E0,2.671059981E0
1.054376433E1,-1.718511883E0,-9.095349795E-1,1.245613786E0,2.309132017E0
1.055371433E1,-1.112694733E0,-1.076498714E0,1.342674057E0,2.049320052E0
1.056366433E1,-1.098211765E0,-8.989526886E-1,1.348946950E0,1.958020146E0
1.057361433E1,-1.362448902E0,-5.666799814E-1,1.233306566E0,1.923132418E0
1.058356433E1,-1.559655021E0,-2.832677776E-1,1.024372541E0,1.887353576E0
1.059351433E1,-1.598783126E0,-2.651975423E-1,8.306975555E-1,1.821124831E0
1.060346333E1,-1.654774016E0,-3.543535477E-1,7.844098270E-1,1.865245898E0
1.061341333E1,-1.594225806E0,-4.665972841E-1,7.980268228E-1,1.842855327E0
1.062336333E1,-1.488045632E0,-4.942657238E-1,8.650536020E-1,1.790780875E0
1.063331333E1,-1.318174662E0,-3.130032080E-1,9.320030518E-1,1.644440676E0
1.064326333E1,-1.305166069E0,-1.019754410E-2,9.408721085E-1,1.608975693E0
1.065321333E1,-1.561360069E0,2.548924094E-1,8.873722780E-1,1.813903240E0
1.066316333E1,-1.841288794E0,2.642672503E-1,7.239800227E-1,1.996078324E0
1.067311233E1,-1.886524900E0,8.168794155E-2,4.605442464E-1,1.943643517E0
1.068306233E1,-1.826160293E0,-1.199486125E-1,1.325727510E-1,1.834890901E0
1.069301233E1,-1.806618898E0,-2.514215022E-1,-7.163175389E-2,1.825435762E0
1.070296233E1,-1.732873814E0,-1.366465062E-1,-1.511281590E-1,1.744810489E0
1.071291233E1,-1.660167781E0,-5.239748418E-2,7.190306470E-2,1.662550031E0
1.072286233E1,-1.512609200E0,2.849523604E-2,3.544605517E-1,1.553847114E0
1.073281133E1,-1.465118407E0,1.290486342E-1,5.781249558E-1,1.580333497E0
1.074276133E1,-1.510648337E0,2.148430753E-1,7.639785592E-1,1.706422920E0
1.075271133E1,-1.439136597E0,2.400083220E-1,7.981742457E-1,1.663069531E0
1.076266133E1,-1.301122719E0,1.498454261E-1,6.847126805E-1,1.477905761E0
1.077261133E1,-1.141617401E0,5.326579571E-2,4.351018417E-1,1.222882311E0
1.078256196E1,-9.247593749E-1,-6.976312995E-3,1.230337496E-1,9.329340137E-1
1.079251096E1,-7.440526369E-1,-5.365580499E-2,4.316188015E-2,7.472323734E-1
1.080246096E1,-5.112606561E-1,-5.938666105E-2,8.095703959E-2,5.210261762E-1
1.081241096E1,-4.085829645E-1,-1.352870286E-1,2.152886331E-1,4.812398722E-1
1.082236096E1,-4.740419590E-1,-3.042405707E-1,3.017677832E-1,6.390163525E-1
1.083231096E1,-6.455884489E-1,-3.502903175E-1,1.822495258E-1,7.567711950E-1
1.084226096E1,-7.192525488E-1,-4.145658356E-1,3.897286177E-2,8.310884098E-1
1.085220996E1,-8.342462307E-1,-4.655009311E-1,-8.226440392E-2,9.588666865E-1
1.086215996E1,-1.169533178E0,-3.598668873E-2,-4.034110292E-1,1.237676595E0
1.087210996E1,-1.523563374E0,1.041745788E-1,-4.481820631E-1,1.591529095E0
1.088205996E1,-1.727383279E0,6.485614657E-2,-2.158873880E-1,1.742029470E0
1.089200996E1,-1.696739776E0,2.857885122E-2,6.505268611E-2,1.698226860E0
1.090195996E1,-1.668469657E0,-8.162596107E-2,2.718511621E-1,1.692441092E0
1.091190996E1,-1.674513339E0,-4.938032091E-2,3.430749996E-1,1.710009882E0
1.092185896E1,-1.652577510E0,9.939681888E-2,3.089271871E-1,1.684140184E0
1.093180896E1,-1.675275232E0,2.259890378E-1,1.881763367E-1,1.700890496E0
1.094175896E1,-1.749146615E0,2.866047835E-1,-8.970330477E-2,1.774740225E0
1.095170896E1,-1.848176229E0,2.652033895E-1,-4.214882811E-1,1.914090014E0
1.096165896E1,-1.864733790E0,1.296953362E-1,-6.162555262E-1,1.968203206E0
1.097160896E1,-1.718522993E0,-6.312361658E-2,-6.561335369E-1,1.840602370E0
1.098155796E1,-1.509048246E0,-7.358487010E-2,-6.041050851E-1,1.627139913E0
1.099150796E1,-1.244094533E0,5.241444111E-3,-5.711408222E-1,1.368941386E0
1.100145796E1,-1.007322060E0,4.290160596E-2,-4.898399663E-1,1.120928844E0
1.101140796E1,-8.023309582E-1,1.546717179E-1,-3.617882093E-1,8.936156978E-1
1.102135796E1,-6.359121841E-1,3.993005097E-1,-3.126424348E-1,8.133698390E-1
1.103130796E1,-5.983087403E-1,3.982684761E-1,-1.886416288E-1,7.430859923E-1
1.104125696E1,-5.912727857E-1,2.996013898E-1,-9.698074937E-2,6.699028031E-1
1.105120696E1,-4.722708374E-1,2.658728957E-1,-1.086927223E-1,5.527587615E-1
1.106115696E1,-3.287690556E-1,1.427182549E-1,-9.737477861E-2,3.714019921E-1
1.107110696E1,-2.605291253E-1,2.113359153E-2,-1.155504099E-1,2.857865481E-1
1.108105696E1,-2.513840801E-1,4.618598700E-2,-2.393709755E-1,3.501793326E-1
1.109100696E1,-2.837764853E-1,9.580779791E-2,-3.432012264E-1,4.555165305E-1
1.110095696E1,-4.056961942E-1,8.674870670E-2,-4.050588477E-1,5.798167039E-1
1.111090596E1,-6.212497061E-1,3.389280081E-2,-4.146143675E-1,7.476663648E-1
1.112085596E1,-7.239987338E-1,-1.015240359E-1,-3.186112726E-1,7.974925952E-1
1.113080596E1,-6.406074983E-1,-2.271257365E-1,-1.599283648E-1,6.982414689E-1
1.114075596E1,-5.382233369E-1,-1.149966055E-1,-5.919717472E-2,5.535457390E-1
1.115070596E1,-5.567344522E-1,1.678782392E-1,-3.710986577E-2,5.826778661E-1
1.116065596E1,-7.082773250E-1,3.229271024E-1,-3.296543241E-2,7.791183494E-1
1.117060496E1,-8.861285752E-1,3.578098369E-1,-9.662523866E-2,9.605145329E-1
1.118055496E1,-1.150484703E0,1.824828297E-1,-1.465885270E-1,1.174054186E0
1.119050496E1,-1.570624105E0,-8.279072642E-2,-2.435832731E-1,1.591554961E0
1.120045496E1,-2.031705710E0,-3.654346061E-1,-3.952179472E-1,2.101801078E0
1.121040496E1,-2.420165482E0,-3.200567043E-1,-5.356529009E-1,2.499312162E0
1.122035496E1,-2.604664432E0,2.430102825E-2,-6.088168446E-1,2.674981363E0
1.123030396E1,-2.567668514E0,2.019891411E-1,-4.674462998E-1,2.617675926E0
1.124025396E1,-2.280069119E0,2.586270261E-1,-1.831839108E-1,2.301990328E0
1.125020396E1,-1.894387067E0,3.058520633E-1,3.961137772E-2,1.919327201E0
1.126015396E1,-1.668059767E0,2.615436172E-1,2.514629444E-1,1.707062408E0
1.127010396E1,-1.594510273E0,2.224532264E-1,2.828555489E-1,1.634611792E0
1.128005396E1,-1.498528228E0,1.745177525E-1,1.326733597E-1,1.514478629E0
1.129000396E1,-1.169323555E0,9.775667489E-2,-7.594948411E-2,1.175858098E0
1.129995296E1,-7.929143098E-1,4.441603482E-2,-1.673111323E-1,8.115903535E-1
1.130990296E1,-4.327939457E-1,-1.115531802E-2,-1.380703032E-1,4.544210043E-1
1.131985296E1,-2.360187668E-1,-2.261118293E-3,-4.154095888E-2,2.396573015E-1
1.132980296E1,-1.481228364E-1,-2.586223483E-3,1.250135437E-1,1.938438787E-1
1.133975296E1,-1.401846564E-1,3.300870180E-2,2.898407058E-1,3.236494199E-1
1.134970296E1,5.123915076E-3,8.825904250E-2,4.248271143E-1,4.339285542E-1
1.135965196E1,2.466650847E-1,1.765800655E-1,4.620646687E-1,5.527458200E-1
1.136960196E1,3.136551726E-1,3.282726270E-1,4.398053420E-1,6.321164637E-1
1.137955196E1,2.257539797E-1,4.515547371E-1,3.309758679E-1,6.036651100E-1
1.138950196E1,7.757208645E-3,4.330822134E-1,1.810356438E-1,4.694616941E-1
1.139945196E1,-1.540144908E-1,1.282808948E-1,4.521776117E-2,2.054777294E-1
1.140940196E1,-5.046535948E-1,-1.895749176E-1,-5.190690279E-2,5.415793817E-1
1.141935196E1,-1.154827430E0,-3.217067885E-1,-1.008293867E-1,1.203032924E0
1.142930096E1,-1.727152898E0,-2.512571955E-1,-1.065747877E-1,1.748583855E0
1.143925096E1,-1.900020859E0,-1.942018193E-1,7.856918290E-2,1.911535176E0
1.144920096E1,-1.758952104E0,-1.054568732E-1,2.721494432E-1,1.783002797E0
1.145915096E1,-1.552281974E0,-5.207647204E-2,3.959978561E-1,1.602842970E0
1.146910096E1,-1.609821792E0,-1.089815748E-1,4.302230711E-1,1.669878761E0
1.147905096E1,-1.929753658E0,-2.481482309E-1,3.693803803E-1,1.980396069E0
1.148899996E1,-2.324132274E0,-5.462772918E-1,2.584551179E-1,2.401418072E0
1.149894996E1,-2.728981499E0,-8.867331773E-1,1.418006806E-1,2.872932854E0
1.150889996E1,-3.063283482E0,-8.471615607E-1,-2.839071706E-2,3.178394947E0
1.151884996E1,-2.781827172E0,-9.555274236E-1,-4.831451967E-2,2.941756171E0
1.152879996E1,-2.230599628E0,-1.182795247E0,1.302126686E-1,2.528148460E0
1.153874996E1,-2.151718642E0,-9.954451954E-1,2.944270425E-1,2.389035692E0
1.154869996E1,-2.475029907E0,-7.386939561E-1,4.240796940E-1,2.617496015E0
1.155864896E1,-2.852172685E0,-8.287404925E-1,5.888458988E-1,3.027943084E0
1.156859896E1,-3.253166548E0,-1.154091266E0,6.328019039E-1,3.509338612E0
1.157854896E1,-3.506453897E0,-1.379155859E0,6.107581933E-1,3.817108249E0
1.158849896E1,-3.282455836E0,-1.364123252E0,5.278645559E-1,3.593603978E0
1.159844896E1,-2.970765328E0,-1.321302338E0,5.659391391E-1,3.300238417E0
1.160839896E1,-2.579345111E0,-1.321630366E0,5.881528576E-1,2.957304822E0
1.161834896E1,-2.140241435E0,-1.457222620E0,6.689273179E-1,2.674246608E0
1.162829796E1,-1.728429638E0,-1.796458776E0,7.081084867E-1,2.591553738E0
1.163824796E1,-1.665420773E0,-1.897869376E0,6.032290260E-1,2.596039248E0
1.164819796E1,-2.053991788E0,-1.773762224E0,5.639344212E-1,2.771847168E0
1.165814796E1,-2.355588979E0,-1.496304824E0,4.956871819E-1,2.834331199E0
1.166809796E1,-2.015362450E0,-1.366269765E0,5.292838213E-1,2.491690237E0
1.167804796E1,-1.472989637E0,-1.443353609E0,5.848595595E-1,2.143601832E0
1.168799696E1,-1.144162255E0,-1.532969790E0,6.962408316E-1,2.035646074E0
1.169794696E1,-1.156777477E0,-1.548701724E0,7.990095936E-1,2.091656638E0
1.170789696E1,-1.641104980E0,-1.523466311E0,9.061222520E-1,2.415622630E0
1.171784696E1,-2.009209279E0,-1.783882585E0,1.014469989E0,2.871986831E0
1.172779696E1,-2.092738801E0,-1.826764310E0,9.427316692E-1,2.933490503E0
1.173774696E1,-1.886500927E0,-1.761345077E0,8.421234535E-1,2.714846982E0
1.174769696E1,-1.433063386E0,-1.930490407E0,8.152261153E-1,2.538711780E0
1.175764596E1,-1.016265230E0,-1.940246487E0,1.001494871E0,2.408390214E0
1.176759596E1,-7.508847430E-1,-1.758710321E0,1.256194761E0,2.287993699E0
1.177754596E1,-8.051762865E-1,-1.641521010E0,1.523048527E0,2.379616964E0
1.178749633E1,-9.307390299E-1,-1.549325622E0,1.674030944E0,2.463547163E0
1.179744633E1,-1.162583835E0,-1.562764862E0,1.701771012E0,2.586476322E0
1.180739633E1,-1.143844971E0,-1.702169500E0,1.623281498E0,2.615493289E0
1.181734633E1,-5.663463977E-1,-1.904355108E0,1.353632762E0,2.404087826E0
1.182729533E1,-9.091733292E-2,-2.209685014E0,1.198189212E0,2.515279550E0
1.183724533E1,2.171764067E-1,-2.356878144E0,1.033851754E0,2.582806540E0
1.184719533E1,3.608916119E-1,-2.246993174E0,7.740798435E-1,2.403834579E0
1.185714533E1,4.198561040E-1,-2.237631782E0,7.671396370E-1,2.402452572E0
1.186709533E1,5.090078701E-1,-2.275727561E0,9.404699662E-1,2.514459922E0
1.187704533E1,3.909008382E-1,-2.082599291E0,1.187888611E0,2.429218521E0
1.188699433E1,3.509169929E-1,-1.863660825E0,1.354129630E0,2.330244936E0
1.189694433E1,5.911628580E-1,-1.762071301E0,1.412728232E0,2.334559884E0
1.190689433E1,8.981732547E-1,-1.688021577E0,1.371636486E0,2.353193296E0
1.191684433E1,1.205042734E0,-1.589345135E0,1.242989409E0,2.350142255E0
1.192679433E1,1.730444881E0,-1.640372032E0,1.035409745E0,2.599487109E0
1.193674433E1,2.047589964E0,-1.816873160E0,8.731177895E-1,2.873323409E0
1.194669433E1,1.980147886E0,-2.084625936E0,6.982641144E-1,2.958753744E0
1.195664333E1,1.683630610E0,-2.177817689E0,3.114883406E-1,2.770293650E0
1.196659333E1,1.275649617E0,-2.141741538E0,4.776239634E-2,2.493315064E0
1.197654333E1,1.150430909E0,-2.012515733E0,-7.155530155E-4,2.318126693E0
1.198649333E1,1.359411858E0,-1.842777495E0,1.119450898E-1,2.292675554E0
1.199644333E1,1.766552607E0,-1.656355396E0,2.406984396E-1,2.433548243E0
1.200639333E1,2.201555631E0,-1.501769047E0,2.823692067E-1,2.679904818E0
1.201634333E1,2.467541670E0,-1.599369602E0,2.744180167E-1,2.953311745E0
1.202629233E1,2.347953246E0,-1.805451209E0,1.068708761E-1,2.963774603E0
1.203624233E1,2.085643351E0,-1.837219716E0,-2.464181860E-1,2.790341627E0
1.204619233E1,1.483741204E0,-1.577235551E0,-6.687728783E-1,2.266366499E0
1.205614233E1,8.815873352E-1,-1.013961573E0,-1.017417789E0,1.685364429E0
1.206609233E1,1.332149507E0,-6.516178054E-1,-9.059361644E-1,1.737799876E0
1.207604233E1,2.580728855E0,-6.747090447E-1,-5.546212685E-1,2.724518025E0
1.208599233E1,3.699721039E0,-5.665121663E-1,-3.049836056E-1,3.755247901E0
1.209594133E1,4.267860485E0,-3.516421938E-1,-1.484877757E-1,4.284896028E0
1.210589133E1,4.281984435E0,-2.559139180E-1,6.024740774E-2,4.290048063E0
1.211584133E1,3.664464083E0,-2.329472244E-1,2.611261261E-1,3.681134102E0
1.212579133E1,2.510919532E0,1.077174067E-1,4.273531481E-1,2.549303953E0
1.213574133E1,1.775934464E0,6.310648423E-1,5.751976569E-1,1.970542667E0
1.214569133E1,1.860573496E0,9.675949073E-1,8.113725078E-1,2.248621574E0
1.215564133E1,2.680765944E0,8.432410026E-1,1.288970743E0,3.091764385E0
1.216559033E1,3.679508969E0,8.587127352E-1,1.563955940E0,4.089270350E0
1.217554033E1,4.238536699E0,9.831911856E-1,1.418140415E0,4.576350128E0
1.218549033E1,3.905452983E0,9.371314985E-1,1.083279730E0,4.159840552E0
1.219544033E1,2.960852836E0,8.795808631E-1,7.247050774E-1,3.172618707E0
1.220539033E1,2.194374080E0,8.101293898E-1,3.829189503E-1,2.370277232E0
1.221534033E1,1.834049941E0,5.759975195E-1,2.916053224E-1,1.944362618E0
1.222529033E1,1.659647963E0,3.004042125E-1,4.041694862E-1,1.734366462E0
1.223523933E1,1.803057359E0,1.171092045E-1,7.328619432E-1,1.949824872E0
1.224518933E1,2.001034725E0,2.231648326E-1,1.172547417E0,2.329980678E0
1.225513933E1,1.781282912E0,4.970630318E-1,1.608788881E0,2.451171584E0
1.226508933E1,1.484509821E0,6.721181434E-1,1.749215612E0,2.390662558E0
1.227503933E1,1.344890590E0,6.922249639E-1,1.661897972E0,2.247178446E0
1.228498933E1,1.222677351E0,6.013808674E-1,1.435659258E0,1.979322196E0
1.229493933E1,1.083662138E0,3.215962762E-1,1.233504056E0,1.673104913E0
1.230488833E1,1.103387135E0,9.954826176E-2,1.076640801E0,1.544839293E0
1.231483833E1,1.119506155E0,-9.059091210E-3,9.250856495E-1,1.452294583E0
1.232478833E1,1.164189407E0,-6.084846497E-2,8.283808887E-1,1.430123914E0
1.233473833E1,1.284643804E0,-5.840082049E-2,6.768730992E-1,1.453230041E0
1.234468833E1,1.281907307E0,-6.385627270E-2,4.830174351E-1,1.371375153E0
1.235463833E1,1.142956413E0,-1.073899627E-1,2.825807480E-1,1.182257944E0
1.236458833E1,9.906206578E-1,-9.797711492E-2,2.433143377E-1,1.024758835E0
1.237453833E1,7.761903960E-1,-9.668254137E-2,3.665730590E-1,8.638257070E-1
1.238448733E1,5.087598020E-1,-3.036692977E-2,4.849733287E-1,7.035323845E-1
1.239443733E1,3.267915273E-1,-4.333313048E-2,5.738317108E-1,6.617803977E-1
1.240438733E1,4.165100348E-1,-8.119852960E-2,6.050283605E-1,7.390082052E-1
1.241433733E1,7.839245081E-1,-2.006366801E-1,5.321749771E-1,9.685055075E-1
1.242428733E1,1.059817777E0,-2.652419811E-1,3.770998013E-1,1.155755722E0
1.243423733E1,9.306843585E-1,-1.392988032E-1,1.376317620E-1,9.510625813E-1
1.244418733E1,5.258979911E-1,3.388402998E-2,-4.187015712E-2,5.286491602E-1
1.245413633E1,1.780108792E-1,1.066567218E-1,-8.994655808E-2,2.261723076E-1
1.246408633E1,1.934375882E-2,1.518638849E-2,-8.343450487E-2,8.698346971E-2
1.247403633E1,9.152061939E-3,-1.514475632E-1,-5.738808274E-2,1.622144157E-1
1.248398633E1,9.865188360E-2,-3.454067230E-1,-3.630653143E-2,3.610486985E-1
1.249393633E1,1.845194149E-1,-4.809521985E-1,-3.244503021E-2,5.161541550E-1
1.250388633E1,2.406187713E-1,-4.917432350E-1,-8.906069577E-2,5.546535944E-1
1.251383633E1,3.198438656E-1,-5.293186122E-1,-1.383229029E-1,6.337282676E-1
1.252378533E1,2.712002939E-1,-4.460554308E-1,-1.877815765E-1,5.547765020E-1
1.253373533E1,2.277560663E-1,-3.080330747E-1,-1.529380184E-1,4.124890767E-1
1.254368533E1,1.938246739E-1,-1.240387398E-1,-5.833065391E-2,2.373943520E-1
1.255363533E1,1.510797733E-1,-9.680065513E-2,3.570309877E-3,1.794664644E-1
1.256358533E1,9.811452448E-2,-2.293400770E-1,-5.145783663E-2,2.546983310E-1
1.257353533E1,3.078325152E-2,-4.163258475E-1,-2.294985366E-1,4.763868157E-1
1.258348533E1,-8.776846111E-2,-5.222902590E-1,-4.064037073E-1,6.675735096E-1
1.259343433E1,-1.483532166E-1,-5.290724444E-1,-5.614753747E-1,7.856086333E-1
1.260338433E1,-2.894079387E-2,-5.210734534E-1,-6.223998535E-1,8.122417688E-1
1.261333433E1,2.309965932E-1,-5.343267524E-1,-6.418383372E-1,8.664992530E-1
1.262328433E1,3.142521733E-1,-4.738291204E-1,-6.079619086E-1,8.323978292E-1
1.263323433E1,2.280431646E-1,-4.060218841E-1,-5.503855455E-1,7.209588781E-1
1.264318433E1,7.449995935E-2,-3.830961210E-1,-5.238216448E-1,6.532243086E-1
1.265313433E1,-8.000043511E-2,-4.275560099E-1,-4.153967249E-1,6.014637564E-1
1.266308333E1,-1.865413821E-1,-3.946782857E-1,-3.160291421E-1,5.389276901E-1
1.267303333E1,-2.671920276E-1,-2.501228356E-1,-2.211194766E-1,4.276059347E-1
1.268298333E1,-2.589924771E-1,-1.032355160E-1,-1.449980843E-1,3.142596369E-1
1.269293333E1,-1.353952020E-1,-1.786733687E-2,-1.293907054E-1,1.881304258E-1
1.270288333E1,2.913258255E-2,8.023549318E-3,-2.024118948E-1,2.046549776E-1
1.271283333E1,2.419150990E-1,-7.926660955E-2,-2.885624313E-1,3.848043494E-1
1.272278333E1,4.091156459E-1,-2.747904843E-1,-3.208729756E-1,5.880857832E-1
1.273273333E1,3.121191090E-1,-3.971463954E-1,-3.571736598E-1,6.186409467E-1
1.274268233E1,-3.629893005E-2,-3.342718703E-1,-4.387692153E-1,5.527872284E-1
1.275263233E1,-4.040899640E-1,-2.893751943E-1,-4.119281566E-1,6.455319576E-1
1.276258233E1,-4.911275232E-1,-2.188946110E-1,-2.633960152E-1,5.987474890E-1
1.277253233E1,-3.293993855E-1,-9.901090264E-3,-1.521410338E-1,3.629722867E-1
1.278248233E1,-1.630513626E-1,1.423007637E-1,-7.115476727E-2,2.278118854E-1
1.279243258E1,-5.312663198E-2,1.334469098E-1,-2.921736717E-2,1.465747976E-1
1.280238258E1,4.308345437E-2,2.853090405E-2,-3.752859950E-2,6.386385760E-2
1.281233158E1,1.471978068E-2,-1.135289544E-1,-1.123823154E-1,1.604221937E-1
1.282228158E1,-2.031199926E-1,-2.298756820E-1,-2.044116426E-1,3.686253928E-1
1.283223158E1,-4.163012892E-1,-3.062642920E-1,-3.216202497E-1,6.087233896E-1
1.284218158E1,-5.062577784E-1,-3.558422488E-1,-3.157321036E-1,6.946995073E-1
1.285213158E1,-5.106431901E-1,-3.168670481E-1,-1.664772463E-1,6.235991239E-1
1.286208158E1,-3.611216998E-1,-1.633080554E-1,-2.881975194E-2,3.973776304E-1
1.287203158E1,-8.879757106E-2,-1.155555993E-1,3.844895124E-2,1.507196968E-1
1.288198158E1,-7.745338798E-2,-9.896763325E-2,1.939521660E-2,1.271605055E-1
1.289193058E1,-3.054123527E-1,-2.335553348E-2,-6.933862209E-2,3.140541842E-1
1.290188058E1,-5.029342210E-1,-1.131026924E-2,-1.591050768E-1,5.276221928E-1
1.291183058E1,-6.456869745E-1,-1.311939776E-1,-1.329282618E-1,6.721558239E-1
1.292178058E1,-7.491125250E-1,-1.610533690E-1,-1.811327076E-1,7.873479666E-1
1.293173058E1,-8.341795725E-1,-1.362307692E-1,-3.002673876E-1,8.969809840E-1
1.294168058E1,-6.820531476E-1,-1.697002316E-1,-3.889871907E-1,8.033092177E-1
1.295163058E1,-1.661556494E-1,-2.054313970E-1,-4.364198041E-1,5.101686036E-1
1.296157958E1,2.533914292E-1,-1.487063885E-1,-4.812235093E-1,5.638234407E-1
1.297152958E1,3.211308378E-1,-1.125086153E-1,-3.405652285E-1,4.814227647E-1
1.298147958E1,1.848187923E-1,2.382681906E-2,-2.164118832E-1,2.855867758E-1
1.299142958E1,-7.047824442E-2,1.347028917E-1,-9.852558374E-2,1.811610958E-1
1.300137958E1,-2.533844125E-1,1.513984466E-1,-7.072792053E-3,2.952544234E-1
1.301132958E1,-3.187551141E-1,1.256706977E-1,2.243751834E-2,3.433677172E-1
1.302127958E1,-2.657682306E-1,1.047131073E-1,3.006636004E-3,2.856687366E-1
1.303122958E1,9.186677456E-2,6.923863471E-2,8.967879214E-3,1.153859422E-1
1.304117858E1,5.938677800E-1,-3.217371941E-2,4.735659957E-2,5.966210990E-1
1.305112858E1,8.955940479E-1,-5.123330355E-3,1.073338294E-1,9.020174600E-1
1.306107858E1,9.796939659E-1,1.281668741E-1,1.453442395E-1,9.986751035E-1
1.307102858E1,8.592430776E-1,2.271163809E-1,1.800392783E-1,9.068046420E-1
1.308097858E1,6.495753729E-1,2.761628258E-1,2.117224163E-1,7.369127852E-1
1.309092858E1,5.194239539E-1,2.970362163E-1,1.885557479E-1,6.273635531E-1
1.310087858E1,4.728386021E-1,2.175941902E-1,1.388988537E-1,5.387174276E-1
1.311082758E1,4.970548457E-1,9.948160350E-2,1.337170511E-1,5.242521901E-1
1.312077758E1,9.138975871E-1,9.140192091E-2,1.329428798E-1,9.280285125E-1
1.313072758E1,1.483097718E0,7.113313258E-2,1.201579428E-1,1.489656570E0
1.314067758E1,1.737145205E0,2.627329409E-2,2.294102436E-1,1.752424837E0
1.315062758E1,1.743753144E0,1.740324336E-1,2.709798539E-1,1.773243467E0
1.316057758E1,1.606552321E0,2.815241379E-1,2.844132471E-1,1.655644013E0
1.317052758E1,1.371922853E0,2.069499189E-1,3.701345980E-1,1.435966645E0
1.318047758E1,1.080054991E0,1.271523821E-1,3.898069704E-1,1.155264466E0
1.319042658E1,8.434509176E-1,8.589559793E-2,3.809788442E-1,9.294796307E-1
1.320037658E1,8.648552352E-1,3.810396552E-2,3.692376351E-1,9.411497868E-1
1.321032658E1,9.151523995E-1,8.809941351E-2,3.633541667E-1,9.885806348E-1
1.322027658E1,1.045759317E0,1.720794636E-1,3.578987145E-1,1.118622090E0
1.323022658E1,1.125500720E0,2.563822800E-1,3.927586448E-1,1.219320753E0
1.324017658E1,9.980957383E-1,2.365789300E-1,3.909027386E-1,1.097711093E0
1.325012658E1,7.310259175E-1,1.532654625E-1,2.762657368E-1,7.963742534E-1
1.326007658E1,4.746383750E-1,1.026712596E-2,1.142674760E-1,4.883073387E-1
1.327002558E1,3.991572529E-1,-1.503032631E-1,-6.425622225E-2,4.313310162E-1
1.327997558E1,5.162617797E-1,-3.816623837E-1,-9.116974991E-2,6.484630472E-1
1.328992558E1,8.412161118E-1,-5.249536657E-1,-3.104284963E-2,9.920607625E-1
1.329987558E1,1.071781181E0,-4.177022821E-1,4.410088817E-2,1.151145075E0
1.330982558E1,1.003959911E0,-3.116337901E-1,1.761275093E-1,1.065866793E0
1.331977558E1,8.349788868E-1,-2.020446897E-1,1.878944643E-1,8.793839479E-1
1.332972558E1,6.133442706E-1,-1.976136696E-1,1.726519060E-1,6.671214562E-1
1.333967458E1,2.098963308E-1,-2.843652999E-1,9.682408053E-2,3.664628168E-1
1.334962458E1,-2.240612108E-1,-2.688117063E-1,-2.852502029E-2,3.511080124E-1
1.335957458E1,-4.564710760E-1,-2.019996661E-1,-1.768350406E-1,5.295661809E-1
1.336952458E1,-5.607397950E-1,-3.691323853E-1,-1.579753947E-1,6.896695302E-1
1.337947458E1,-4.829344046E-1,-5.703222120E-1,-4.172108967E-2,7.484876178E-1
1.338942458E1,-3.961851132E-1,-5.929503518E-1,-1.002914429E-2,7.131993742E-1
1.339937458E1,-4.093928039E-1,-5.329731220E-1,-2.283805490E-2,6.724465729E-1
1.340932458E1,-1.246196607E-1,-4.957550097E-1,8.986001015E-2,5.190162915E-1
1.341927358E1,1.905604658E-1,-3.736715788E-1,8.399528939E-2,4.277837637E-1
1.342922358E1,3.165068597E-1,-1.752276045E-1,-7.429472208E-2,3.693250754E-1
1.343917358E1,4.151847634E-1,-2.261118293E-2,-2.752798232E-1,4.986668571E-1
1.344912358E1,5.966870150E-1,-6.498069227E-2,-3.957792799E-1,7.189569685E-1
1.345907358E1,9.146583098E-1,-2.693666071E-1,-2.751150048E-1,9.923943060E-1
1.346902358E1,1.334689830E0,-3.919224930E-1,-1.149527514E-1,1.395784481E0
1.347897358E1,1.689663183E0,-5.290408695E-1,-8.458110731E-2,1.772568723E0
1.348892358E1,1.915086210E0,-6.479860997E-1,9.823673129E-2,2.024127376E0
1.349887258E1,2.256421809E0,-4.786595052E-1,2.034843107E-1,2.315590674E0
1.350882258E1,2.476572987E0,-2.238431096E-1,2.376004386E-1,2.497993888E0
1.351877258E1,2.522784994E0,-1.097452211E-1,2.519880974E-1,2.537712777E0
1.352872258E1,2.453109572E0,-4.494579256E-2,1.031717082E-1,2.455689536E0
1.353867258E1,2.344664772E0,-1.588051146E-1,-5.236649394E-2,2.350619962E0
1.354862258E1,2.336709635E0,-3.995630497E-1,-1.407003808E-1,2.374796654E0
1.355857258E1,2.297946396E0,-5.619870061E-1,-2.093654037E-1,2.374914926E0
1.356852158E1,2.228216303E0,-6.952584994E-1,-2.627387150E-1,2.348906960E0
1.357847158E1,2.188081599E0,-7.359001565E-1,-6.823693357E-2,2.309525147E0
1.358842158E1,2.132680400E0,-4.638461691E-1,3.216190803E-1,2.206109197E0
1.359837158E1,2.071288144E0,-1.098136336E-1,5.120922033E-1,2.136476547E0
1.360832158E1,2.044965441E0,4.360385656E-2,6.928119513E-1,2.159577123E0
1.361827158E1,2.252006577E0,1.115642899E-1,8.009399787E-1,2.392798584E0
1.362822158E1,2.693239809E0,-2.081953758E-1,8.370768678E-1,2.827999941E0
1.363817158E1,2.740165176E0,-6.172145426E-1,7.926087928E-1,2.918507783E0
1.364812058E1,2.464405808E0,-7.756284785E-1,4.752126447E-1,2.626922645E0
1.365807058E1,2.127361481E0,-8.840422887E-1,1.907583940E-1,2.311619865E0
1.366802058E1,1.788997729E0,-9.111511499E-1,4.540362954E-2,2.008175984E0
1.367797058E1,1.649242258E0,-8.452851892E-1,-2.612535954E-3,1.853244156E0
1.368792058E1,1.697796075E0,-7.534266007E-1,9.140352890E-2,1.859709053E0
1.369787058E1,1.829717446E0,-8.450577325E-1,2.814804299E-1,2.034998707E0
1.370782058E1,1.851438098E0,-1.008340645E0,5.103123108E-1,2.169099477E0
1.371777058E1,1.805321693E0,-1.087402017E0,6.045741049E-1,2.192518965E0
1.372772058E1,1.518450861E0,-1.198731834E0,7.023523414E-1,2.058142327E0
1.373766958E1,9.911144552E-1,-1.261254357E0,6.658424731E-1,1.736783410E0
1.374761958E1,5.127899954E-1,-1.162987220E0,5.080505347E-1,1.368798085E0
1.375756958E1,4.083210093E-1,-1.085620955E0,4.824175107E-1,1.256194873E0
1.376751958E1,7.355592638E-1,-1.155592831E0,6.258263218E-1,1.506021516E0
1.377746958E1,1.098188668E0,-1.248781076E0,9.022709835E-1,1.891973957E0
1.378741871E1,1.106021160E0,-1.265266716E0,1.040890925E0,1.976774288E0
1.379736871E1,8.395924862E-1,-1.300026074E0,1.074926398E0,1.884263808E0
1.380731771E1,4.630470009E-1,-1.305344701E0,1.035298502E0,1.729213782E0
1.381726771E1,1.787411964E-1,-1.278918210E0,9.315655339E-1,1.592292231E0
1.382721771E1,1.421443507E-2,-1.256687681E0,9.022630897E-1,1.547108484E0
1.383716771E1,-1.388494447E-2,-1.192886957E0,8.911308682E-1,1.489055509E0
1.384711771E1,2.645601958E-1,-1.159018130E0,9.251628327E-1,1.506400142E0
1.385706771E1,7.981076606E-1,-1.439517251E0,1.102819663E0,1.981261457E0
1.386701771E1,1.188080692E0,-1.729352036E0,1.371119592E0,2.506424371E0
1.387696771E1,1.156386956E0,-1.757593503E0,1.575834120E0,2.628615394E0
1.388691671E1,8.015534247E-1,-1.705122344E0,1.598527018E0,2.470874082E0
1.389686671E1,4.341634367E-1,-1.770940357E0,1.419339387E0,2.310682136E0
1.390681671E1,9.967704669E-2,-1.870333083E0,1.154256888E0,2.200088707E0
1.391676671E1,-1.963948175E-2,-1.996231238E0,9.151958151E-1,2.196112074E0
1.392671671E1,4.714044262E-1,-2.165660743E0,7.409230609E-1,2.336937220E0
1.393666671E1,1.081646018E0,-2.373522243E0,7.873299265E-1,2.724601688E0
1.394661671E1,1.411262043E0,-2.467333801E0,1.005012410E0,3.014870907E0
1.395656671E1,1.425941478E0,-2.472097528E0,1.122488819E0,3.066684926E0
1.396651571E1,8.508871872E-1,-2.315495059E0,1.213384810E0,2.749150609E0
1.397646571E1,8.713630401E-2,-2.054729122E0,1.087529486E0,2.326418897E0
1.398641571E1,-2.680199202E-1,-2.047338241E0,7.254827571E-1,2.188550612E0
1.399636571E1,-2.393332610E-1,-2.181054708E0,4.321359877E-1,2.236296394E0
1.400631571E1,1.511110559E-2,-2.315062950E0,2.820250981E-1,2.332227040E0
1.401626571E1,2.295266032E-1,-2.238660307E0,1.035761163E-2,2.250419897E0
1.402621571E1,2.451065093E-2,-2.119956567E0,-1.706123972E-1,2.126952093E0
1.403616571E1,-5.333091907E-1,-2.096560687E0,-1.299052513E-1,2.167224212E0
1.404611471E1,-1.162010004E0,-1.926448227E0,-1.755451083E-2,2.249839590E0
1.405606471E1,-1.301868824E0,-1.753230311E0,2.345318198E-1,2.196288718E0
1.406601471E1,-1.142233697E0,-1.713539411E0,6.382561867E-1,2.155988426E0
1.407596471E1,-1.189697593E0,-1.682754990E0,7.957532792E-1,2.209132862E0
1.408591471E1,-1.603971360E0,-1.504928298E0,4.760450689E-1,2.250367129E0
1.409586471E1,-2.187687789E0,-1.279364938E0,-5.757051587E-2,2.534968811E0
1.410581471E1,-2.839318458E0,-1.135125822E0,-4.512308013E-1,3.090930147E0
1.411576471E1,-3.140094554E0,-1.051760899E0,-4.918489965E-1,3.347881454E0
1.412571371E1,-2.841943566E0,-1.090443154E0,-2.608021172E-1,3.055114932E0
1.413566371E1,-2.538594696E0,-1.068397982E0,3.613159005E-1,2.777856450E0
1.414561371E1,-2.411381210E0,-7.789222151E-1,8.797942134E-1,2.682446088E0
1.415556371E1,-2.397085645E0,-5.415778846E-1,1.129520681E0,2.704652133E0
1.416551371E1,-2.264551485E0,-3.565363133E-1,1.073770988E0,2.531461180E0
1.417546371E1,-2.401778620E0,-1.425615495E-1,8.344187236E-1,2.546589669E0
1.418541371E1,-2.743066857E0,-7.134714067E-2,4.680672741E-1,2.783629496E0
1.419536271E1,-2.897808741E0,-2.160774225E-1,2.708687750E-1,2.918450761E0
1.420531271E1,-2.694475325E0,-3.774091190E-1,1.978265083E-1,2.727960823E0
1.421526271E1,-2.211630675E0,-6.063808215E-1,2.089572680E-1,2.302752936E0
1.422521271E1,-1.664368420E0,-7.265574753E-1,3.685418165E-1,1.853059922E0
1.423516271E1,-1.113807166E0,-5.725429845E-1,4.940873837E-1,1.346289053E0
1.424511271E1,-8.031703261E-1,-1.548518121E-1,5.423807073E-1,9.814471397E-1
1.425506271E1,-8.567010006E-1,1.162274444E-1,6.711936986E-1,1.094507380E0
1.426501271E1,-1.204038182E0,4.340855956E-2,7.833924115E-1,1.437113745E0
1.427496271E1,-1.484869425E0,-2.082439077E-1,7.301155061E-1,1.667714420E0
1.428491171E1,-1.636711675E0,-4.683403391E-1,5.900442857E-1,1.801754711E0
1.429486171E1,-1.822033913E0,-5.087849450E-1,5.362393767E-1,1.966271184E0
1.430481171E1,-1.844678425E0,-4.832647723E-1,5.172476202E-1,1.975836135E0
1.431476171E1,-2.043267995E0,-1.937293643E-1,4.209702909E-1,2.095158980E0
1.432471171E1,-2.511614766E0,2.279934633E-1,2.573190039E-1,2.535035073E0
1.433466171E1,-3.023594629E0,3.888556284E-1,3.545541072E-1,3.069045747E0
1.434461171E1,-3.442678608E0,3.544319004E-1,5.173598868E-1,3.499331254E0
1.435456171E1,-3.425738640E0,6.248100758E-2,6.465868610E-1,3.486784145E0
1.436451071E1,-3.312249447E0,-6.659978628E-2,7.282929289E-1,3.392026314E0
1.437446071E1,-3.300802937E0,3.835364163E-2,5.978871560E-1,3.354733981E0
1.438441071E1,-3.199939052E0,4.699991941E-3,4.311315823E-1,3.228855287E0
1.439436071E1,-2.944114012E0,9.602063656E-2,1.732126540E-1,2.950767680E0
1.440431071E1,-2.665795317E0,2.553110701E-1,-1.775892949E-1,2.683875253E0
1.441426071E1,-2.732944742E0,1.994526190E-1,-2.044577990E-1,2.747830290E0
1.442421071E1,-2.987115605E0,1.468440503E-1,-1.003446525E-1,2.992405698E0
1.443416071E1,-3.406637540E0,7.916545272E-2,2.062605321E-2,3.407619688E0
1.444410971E1,-3.466610677E0,-1.635226482E-1,1.699890109E-1,3.474625952E0
1.445405971E1,-3.027519280E0,-2.968099290E-1,2.625779714E-1,3.053345103E0
1.446400971E1,-2.718300390E0,-2.036959434E-1,4.266105151E-1,2.759102314E0
1.447395971E1,-2.468764615E0,9.308767319E-3,4.661020249E-1,2.512396560E0
1.448390971E1,-2.251722987E0,2.540352076E-1,3.629670811E-1,2.294893330E0
1.449385971E1,-2.320296793E0,1.236428833E-1,3.731564025E-1,2.353361526E0
1.450380971E1,-2.611531987E0,-8.645810008E-2,3.581302277E-1,2.637391056E0
1.451375971E1,-2.766725276E0,-1.843896067E-1,2.679936443E-1,2.785783350E0
1.452370871E1,-2.697317657E0,-4.497888780E-1,2.792992540E-1,2.748788942E0
1.453365871E1,-2.669455090E0,-5.693235075E-1,4.008716565E-1,2.758771070E0
1.454360871E1,-2.399478033E0,-5.216359556E-1,4.808592278E-1,2.502163963E0
1.455355871E1,-1.942859607E0,-4.167018235E-1,4.605155951E-1,2.039710390E0
1.456350871E1,-1.635942766E0,-3.662438607E-1,4.162176740E-1,1.727333335E0
1.457345871E1,-1.614689307E0,-5.304178888E-1,3.811332107E-1,1.741788511E0
1.458340871E1,-1.825083820E0,-7.516671735E-1,4.115352237E-1,2.016257853E0
1.459335871E1,-2.108483745E0,-7.304850501E-1,3.573736346E-1,2.259873453E0
1.460330771E1,-2.169966048E0,-6.981669044E-1,3.416376078E-1,2.304974171E0
1.461325771E1,-1.976842455E0,-8.521644384E-1,3.906922388E-1,2.187859856E0
1.462320771E1,-1.643823059E0,-8.968646479E-1,4.103505778E-1,1.917004966E0
1.463315771E1,-1.295385139E0,-8.111965066E-1,3.334000504E-1,1.564358662E0
1.464310771E1,-1.109825504E0,-7.764774942E-1,2.505800514E-1,1.377468806E0
1.465305771E1,-1.176064517E0,-9.501737130E-1,2.236384571E-1,1.528388692E0
1.466300771E1,-1.542836967E0,-1.076933162E0,2.780912741E-1,1.901963643E0
1.467295771E1,-1.943705699E0,-9.044081408E-1,4.149126120E-1,2.183597584E0
1.468290671E1,-1.863367295E0,-8.165402770E-1,5.275171582E-1,2.101701704E0
1.469285671E1,-1.825967042E0,-9.352264756E-1,6.422312701E-1,2.149712819E0
1.470280671E1,-1.945194401E0,-8.479456723E-1,4.829764315E-1,2.176248918E0
1.471275671E1,-2.040884669E0,-6.328915125E-1,1.702861957E-1,2.143538964E0
1.472270671E1,-2.367078319E0,-7.583335841E-1,6.215933762E-2,2.486361473E0
1.473265671E1,-3.186355970E0,-1.096023152E0,8.622771978E-2,3.370692264E0
1.474260671E1,-4.587905788E0,-1.274150391E0,1.337035295E-1,4.763424752E0
1.475255671E1,-6.283524944E0,-1.343028837E0,4.393410730E-1,6.440452838E0
1.476250571E1,-6.481194162E0,-1.652274039E0,7.419800913E-1,6.729518685E0
1.477245571E1,-5.217632495E0,-1.954865695E0,7.307218623E-1,5.619532291E0
1.478240571E1,-4.209912532E0,-2.158847567E0,8.049336270E-1,4.799156643E0
1.479235658E1,-3.873159688E0,-2.249129162E0,9.320637167E-1,4.574788599E0
1.480230658E1,-3.636458259E0,-2.219398409E0,1.013212399E0,4.379058955E0
1.481225658E1,-3.482938735E0,-2.208143104E0,1.126304712E0,4.274964386E0
1.482220658E1,-3.579460478E0,-2.475606442E0,1.297561619E0,4.541456894E0
1.483215658E1,-4.134636939E0,-2.555790480E0,1.334791718E0,5.040729761E0
1.484210558E1,-4.805967463E0,-2.153493857E0,1.199397101E0,5.401241751E0
1.485205558E1,-3.779003436E0,-2.472950637E0,1.310735250E0,4.702592765E0
1.486200558E1,-1.163146556E0,-3.234249344E0,1.339493172E0,3.688837308E0
1.487195558E1,4.896993408E-1,-3.325366505E0,1.231195429E0,3.579624285E0
1.488190558E1,9.093953772E-1,-3.055300571E0,1.210211087E0,3.409761342E0
1.489185558E1,5.061282626E-1,-2.707202960E0,1.219745557E0,3.012124318E0
1.490180558E1,-3.664327258E-1,-2.489193032E0,1.217027625E0,2.794908073E0
1.491175558E1,-8.735443439E-1,-2.575168737E0,1.346970445E0,3.034617459E0
1.492170458E1,-2.032793110E-1,-3.038202143E0,1.444648182E0,3.370312020E0
1.493165458E1,1.800012348E-1,-3.116936072E0,1.419271120E0,3.429580358E0
1.494160458E1,3.188623374E-1,-2.755925469E0,1.314679635E0,3.070045753E0
1.495155458E1,9.089691152E-1,-2.965418342E0,1.559096904E0,3.471413826E0
1.496150458E1,2.118909623E0,-3.331862762E0,1.838702424E0,4.355676074E0
1.497145458E1,2.607643003E0,-3.273999885E0,1.788245923E0,4.551560256E0
1.498140458E1,1.991387697E0,-3.361483002E0,1.798852918E0,4.301286407E0
1.499135458E1,1.081122254E0,-3.444806410E0,1.650288910E0,3.969756921E0
1.500130358E1,3.389530049E-1,-2.894983951E0,1.358955921E0,3.215988560E0
1.501125358E1,5.450556622E-1,-2.405726368E0,1.233976365E0,2.758133916E0
1.502120358E1,1.542438186E0,-2.461003606E0,1.335231429E0,3.196638433E0
1.503115358E1,2.689955720E0,-2.321352215E0,1.374768108E0,3.809793332E0
1.504110358E1,3.506466469E0,-2.066492550E0,1.345659353E0,4.286781736E0
1.505105358E1,3.787270522E0,-1.969617051E0,1.371852686E0,4.483836429E0
1.506100358E1,3.464613853E0,-2.107295006E0,1.448650017E0,4.306138440E0
1.507095358E1,2.685704210E0,-1.986668116E0,1.273120111E0,3.575009388E0
1.508090258E1,2.327307605E0,-1.324573855E0,9.044028783E-1,2.826446736E0
1.509085258E1,2.940417987E0,-1.044541926E0,8.407313045E-1,3.231710831E0
1.510080258E1,4.318901415E0,-1.065804741E0,8.077308619E-1,4.521203195E0
1.511075258E1,5.458093391E0,-1.042917570E0,6.621503949E-1,5.596150790E0
1.512070258E1,5.810123255E0,-8.662246531E-1,5.568805595E-1,5.900677364E0
1.513065258E1,5.415575362E0,-7.130258489E-1,4.637507864E-1,5.481963805E0
1.514060258E1,4.552333374E0,-7.697730768E-1,4.587725401E-1,4.639694169E0
1.515055258E1,3.423642998E0,-7.871404767E-1,3.023571460E-1,3.525952545E0
1.516050158E1,2.670395614E0,-5.270335203E-1,1.275207202E-1,2.724892402E0
1.517045158E1,3.036644445E0,-2.741496295E-1,2.886255813E-1,3.062625056E0
1.518040158E1,3.907944189E0,-8.065006077E-2,5.409469700E-1,3.946030390E0
1.519035158E1,4.244753166E0,1.579765642E-1,8.302367949E-1,4.328068758E0
1.520030158E1,4.132744780E0,5.237251657E-1,1.051170330E0,4.296373649E0
1.521025158E1,3.817605584E0,9.073574764E-1,9.793448871E-1,4.044320264E0
1.522020158E1,3.381328745E0,8.956203604E-1,7.926093775E-1,3.586606967E0
1.523015158E1,3.128578170E0,5.483501297E-1,6.763029957E-1,3.247472090E0
1.524010158E1,3.065596056E0,3.945186567E-1,4.672790694E-1,3.125999661E0
1.525005058E1,3.032649043E0,2.676025021E-1,2.994382342E-1,3.059123170E0
1.526000058E1,2.945931911E0,2.062084919E-1,2.769036498E-1,2.966093794E0
1.526995058E1,2.840691385E0,3.379602939E-1,3.320282936E-1,2.879928383E0
1.527990058E1,3.025921529E0,4.349199933E-1,5.327462500E-1,3.103091211E0
1.528985058E1,3.288998286E0,4.758791542E-1,7.409778786E-1,3.404852260E0
1.529980058E1,3.139923523E0,5.704321396E-1,8.416564071E-1,3.300439071E0
1.530975058E1,2.699564449E0,6.526872611E-1,8.472562855E-1,2.903703169E0
1.531970058E1,2.261696875E0,5.735943139E-1,7.778796566E-1,2.459548729E0
1.532964958E1,1.869074762E0,3.189463180E-1,7.170434707E-1,2.027145422E0
1.533959958E1,1.653710116E0,7.369479775E-2,7.060407650E-1,1.799633749E0
1.534954958E1,1.572137949E0,2.652238548E-2,6.632192659E-1,1.706511342E0
1.535949958E1,1.396326208E0,9.606975317E-2,6.125612919E-1,1.527804834E0
1.536944958E1,1.494636906E0,9.937869251E-2,5.547299536E-1,1.597354352E0
1.537939958E1,1.740276097E0,4.396989226E-2,4.469985867E-1,1.797304087E0
1.538934958E1,1.705658826E0,-5.506732285E-2,3.870774901E-1,1.749895261E0
1.539929958E1,1.446281602E0,-1.649715883E-1,3.660304374E-1,1.500974476E0
1.540924858E1,9.713418031E-1,-2.029954469E-1,3.726623493E-1,1.059994942E0
1.541919858E1,4.797543964E-1,-2.662289912E-1,3.367107439E-1,6.437517236E-1
1.542914858E1,6.089699686E-2,-3.172512102E-1,2.888033366E-1,4.333175993E-1
1.543909858E1,-1.758064789E-1,-2.507093114E-1,1.728407711E-1,3.516205468E-1
1.544904858E1,-2.074951717E-1,-1.791241890E-1,4.459844967E-2,2.777206206E-1
1.545899858E1,8.709924728E-2,-3.603393424E-1,3.175624648E-2,3.720741589E-1
1.546894858E1,4.709104827E-1,-5.473777378E-1,1.912097991E-2,7.223189617E-1
1.547889858E1,3.948162800E-1,-5.334935242E-1,-1.460515698E-2,6.638588298E-1
1.548884758E1,6.066954017E-2,-5.075769103E-1,-5.258751869E-2,5.138876921E-1
1.549879758E1,-3.493360519E-1,-5.253027445E-1,-1.419183558E-1,6.466215820E-1
1.550874758E1,-6.944562614E-1,-5.171505564E-1,-2.333536059E-1,8.967542040E-1
1.551869758E1,-7.479930755E-1,-4.254948664E-1,-3.357003450E-1,9.237067955E-1
1.552864758E1,-5.153177467E-1,-4.120556259E-1,-3.988783407E-1,7.710033396E-1
1.553859758E1,-1.506646210E-1,-4.580860770E-1,-3.885901648E-1,6.193100985E-1
1.554854758E1,1.140566656E-1,-4.073456937E-1,-4.205960691E-1,5.965236714E-1
1.555849758E1,1.230783346E-1,-3.459318030E-1,-4.844599432E-1,6.078803544E-1
1.556844758E1,1.012039009E-1,-3.992724431E-1,-5.333765799E-1,6.739074783E-1
1.557839658E1,-1.514341146E-2,-4.507554227E-1,-5.985432136E-1,7.494422944E-1
1.558834658E1,-2.532803321E-1,-5.066974890E-1,-5.343331844E-1,7.787202475E-1
1.559829658E1,-4.050614789E-1,-4.486328834E-1,-3.148012269E-1,6.815028087E-1
1.560824658E1,-5.097032502E-1,-3.038102156E-1,-7.851875067E-2,5.985509541E-1
1.561819658E1,-5.255997831E-1,-1.120934629E-1,1.706159055E-2,5.376905934E-1
1.562814658E1,-4.486308369E-1,2.833853066E-2,5.164493839E-2,4.524819331E-1
1.563809658E1,-3.216407150E-1,4.960602343E-2,2.108388106E-2,3.261257996E-1
1.564804658E1,-2.495325592E-1,7.103782296E-3,-1.012357591E-1,2.693801046E-1
1.565799558E1,-3.155660427E-1,-7.080685794E-2,-1.780892318E-1,3.692036199E-1
1.566794558E1,-4.025845984E-1,-1.677531087E-1,-2.661395288E-1,5.109263284E-1
1.567789558E1,-4.482574922E-1,-3.019817913E-1,-2.823164356E-1,6.097789365E-1
1.568784558E1,-3.962924096E-1,-4.797114193E-1,-1.393590387E-1,6.376454041E-1
1.569779558E1,-3.207332271E-1,-3.849151897E-1,-8.746558447E-2,5.086056771E-1
1.570774558E1,-2.932095060E-1,-9.962836862E-2,-7.216576000E-2,3.179709470E-1
1.571769558E1,-1.352820584E-1,1.031039536E-2,-1.599915147E-2,1.366144664E-1
1.572764558E1,-5.755648255E-2,4.232623994E-2,3.622936646E-2,8.010509513E-2
1.573759558E1,-6.737658888E-2,2.012301725E-1,-9.962425729E-2,2.344316099E-1
1.574754458E1,-2.498269665E-1,1.759526592E-1,-1.800375241E-1,3.546637303E-1
1.575749458E1,-3.241898087E-1,1.375615954E-2,-1.792393609E-1,3.706953095E-1
1.576744458E1,-3.524149033E-1,-5.994740903E-2,-1.742844486E-1,3.976996668E-1
1.577739458E1,-4.240555742E-1,-1.824676269E-1,-5.652912676E-2,4.650947292E-1
1.578734396E1,-3.869602534E-1,-2.777906907E-1,-2.396130502E-2,4.769486866E-1
1.579729396E1,-2.640371624E-1,-2.131672633E-1,-6.948772609E-2,3.463877153E-1
1.580724396E1,-6.965846479E-2,-8.085295916E-2,-9.964943687E-2,1.460120303E-1
1.581719396E1,2.288746387E-1,2.460917652E-2,-6.922110219E-2,2.403763149E-1
1.582714296E1,4.640818119E-1,1.505868530E-1,-4.445872863E-2,4.899233685E-1
1.583709296E1,4.832641876E-1,1.868004137E-1,-4.737238705E-2,5.202718641E-1
