"Time (s)","Linear Acceleration x (m/s^2)","Linear Acceleration y (m/s^2)","Linear Acceleration z (m/s^2)","Absolute acceleration (m/s^2)"
2.516833309E-3,3.740760782E-2,-3.226035641E-2,-1.081465924E-1,1.188938399E-1
1.246683332E-2,1.915198157E-2,-4.812501507E-2,-6.023684621E-2,7.944364741E-2
2.241683332E-2,-2.940930431E-2,-5.612277725E-2,7.568285108E-2,9.870444394E-2
3.236583332E-2,-1.251176470E-2,-8.088455239E-2,3.151766181E-2,8.770529105E-2
4.231583333E-2,3.264321656E-2,-1.047775912E-1,-8.509043634E-2,1.388679429E-1
5.226583334E-2,2.775468618E-2,-9.858943717E-2,-3.374077320E-2,1.078361697E-1
6.221483334E-2,1.278523395E-2,-7.276517726E-2,4.559424877E-2,8.681629311E-2
7.216483331E-2,2.095263391E-2,-5.343144093E-2,3.228832483E-3,5.748353771E-2
8.211483332E-2,4.350257182E-2,-3.999566312E-2,-6.128525198E-2,8.513523908E-2
9.206383332E-2,2.875610408E-2,6.899977138E-3,-2.251178026E-2,3.716589104E-2
1.020138333E-1,-5.365204085E-3,4.722659038E-2,3.077740431E-2,5.662494918E-2
1.119628333E-1,-2.289586467E-2,6.651712584E-2,-1.443092823E-2,7.181225758E-2
1.219164167E-1,-2.829613149E-2,8.469780494E-2,-4.616435230E-2,1.005262983E-1
1.318664167E-1,-4.141878862E-2,9.026489329E-2,-4.250341058E-3,9.940489128E-2
1.418154167E-1,-5.302335553E-2,8.824705571E-2,9.070785642E-3,1.033503664E-1
1.517654167E-1,-4.250615146E-2,6.168416913E-2,-1.952092946E-2,7.741302422E-2
1.617154166E-1,-2.260621965E-2,6.536029533E-2,-1.203532398E-2,7.019870651E-2
1.716644166E-1,-1.647657891E-2,6.492853328E-2,-8.143417239E-3,6.747968087E-2
1.816144167E-1,4.141105476E-3,4.523923142E-2,-1.248555958E-2,4.711290706E-2
1.915644167E-1,2.613775061E-2,8.765876186E-3,-2.461151540E-2,3.695604528E-2
2.015134167E-1,3.861387927E-2,-1.788014136E-2,-1.757497609E-2,4.603923231E-2
2.114634167E-1,4.648295703E-2,-5.088378623E-2,-5.599293709E-3,6.914605618E-2
2.214134166E-1,3.400740167E-2,-8.700537206E-2,-1.158684254E-2,9.413125440E-2
2.313624166E-1,3.328276263E-2,-9.175912184E-2,-9.583586454E-4,9.761350921E-2
2.413124166E-1,2.592365572E-2,-7.526099274E-2,-5.092924833E-4,7.960221312E-2
2.512624167E-1,1.050262714E-2,-4.367639858E-2,-1.338193774E-2,4.687226502E-2
2.612114167E-1,-5.158132708E-3,-1.885297186E-2,-2.454661131E-3,1.969939700E-2
2.711614167E-1,-2.030857681E-2,-8.750858435E-3,-2.341049731E-2,3.220352775E-2
2.811114167E-1,-3.673256276E-2,1.301546807E-2,-2.221181810E-2,4.485586293E-2
2.910604167E-1,-4.366033701E-2,2.563687263E-2,6.678104997E-3,5.106927993E-2
3.010104166E-1,-4.614838209E-2,2.925145918E-2,-1.352987230E-2,5.628835118E-2
3.109604167E-1,-3.713524406E-2,5.301076117E-2,-7.541738749E-3,6.516168333E-2
3.209094167E-1,-2.694846021E-2,6.568568375E-2,-9.637380838E-3,7.164989649E-2
3.308594167E-1,-1.337531623E-2,6.395900097E-2,-1.906893969E-2,6.806818162E-2
3.408094167E-1,3.787559064E-3,7.295020966E-2,-8.441040516E-3,7.353454874E-2
3.507584167E-1,3.205507575E-2,5.510181229E-2,-1.921921313E-2,6.658164726E-2
3.607084166E-1,3.227758743E-2,3.117844108E-2,-1.113543749E-2,4.623781792E-2
3.706584167E-1,3.257698771E-2,2.157665973E-3,-8.441040516E-3,3.372190409E-2
3.806074166E-1,3.573989512E-2,-2.890388104E-2,-9.190068841E-3,4.687463928E-2
3.905574167E-1,3.585777818E-2,-3.852268098E-2,2.486236095E-3,5.268736638E-2
4.005074167E-1,2.873097248E-2,-3.093823015E-2,-1.697271287E-2,4.550511890E-2
4.104564167E-1,2.650916072E-2,-3.241490563E-2,-5.895747542E-3,4.228736866E-2
4.204064167E-1,1.200903435E-2,-2.561057844E-2,-1.487765551E-2,3.196033897E-2
4.303564166E-1,2.481460108E-3,-2.429680501E-2,-1.727267504E-2,2.991383761E-2
4.403054166E-1,-1.440342348E-2,-1.876402795E-2,-4.549133778E-3,2.408821228E-2
4.502554167E-1,-2.476870272E-2,-8.191522008E-3,-1.682302415E-2,3.104196851E-2
4.602054167E-1,-3.345947188E-2,-6.601474495E-3,-5.296407938E-3,3.451329687E-2
4.701544167E-1,-3.824978046E-2,-7.575501851E-4,-6.643606424E-3,3.882984798E-2
4.801044167E-1,-3.383592978E-2,1.015907810E-2,-1.487707078E-2,3.833280902E-2
4.900544166E-1,-3.245483572E-2,1.169233681E-2,-1.278142869E-2,3.678847674E-2
5.000034166E-1,-2.211220301E-2,6.339347928E-3,-1.966710985E-2,3.026436955E-2
5.099534167E-1,-1.534953038E-2,1.420487624E-2,-7.243530750E-3,2.213267561E-2
5.199034167E-1,-1.202082471E-4,1.909599905E-2,-2.604349852E-3,1.927314888E-2
5.298524167E-1,8.810337866E-3,1.225391391E-2,-1.353104174E-2,2.026991737E-2
5.398024167E-1,1.941665259E-2,8.484076937E-3,-9.490031004E-3,2.321737814E-2
5.497524166E-1,2.271558085E-2,5.081264663E-3,-8.592483401E-3,2.481224768E-2
5.597014166E-1,2.529171789E-2,-1.141444789E-2,-1.248497486E-2,3.042754035E-2
5.696514166E-1,2.376405742E-2,-2.351626110E-2,-1.487999439E-2,3.659452411E-2
5.796014167E-1,1.700223218E-2,-3.382096228E-2,-1.128746510E-2,3.950114248E-2
5.895504167E-1,1.205005850E-2,-2.290183066E-2,-2.041730762E-2,3.296307340E-2
5.995004167E-1,1.248142999E-2,-1.111670356E-2,5.927907228E-3,1.773435301E-2
6.094504167E-1,3.673010739E-4,6.468171682E-3,-2.305557132E-3,6.876608806E-3
6.193994167E-1,-3.487818455E-4,1.767091382E-2,-5.448435545E-3,1.849508837E-2
6.293494166E-1,-1.133923808E-2,1.252911906E-2,-1.353104174E-2,2.164823861E-2
6.392994167E-1,-2.113366234E-2,2.092475457E-2,5.180633068E-3,3.018801081E-2
6.492484167E-1,-2.333894886E-2,2.191864876E-2,-2.154114246E-3,3.209009045E-2
6.591984167E-1,-2.508484979E-2,1.124061656E-2,-1.188446581E-2,2.994731503E-2
6.691484167E-1,-2.292651230E-2,1.187143749E-2,-1.487707078E-2,2.979736951E-2
6.790974167E-1,-2.147148522E-2,1.422518390E-2,-3.798936009E-3,2.603483147E-2
6.890474166E-1,-1.292715456E-2,-5.231227472E-3,-1.113426805E-2,1.784513913E-2
6.989974166E-1,5.527336411E-3,-6.343404434E-3,-1.487648606E-2,1.709093518E-2
7.089464166E-1,1.342380015E-2,-7.669342810E-3,-4.397690892E-3,1.607348484E-2
7.188964167E-1,2.077171512E-2,4.559480608E-3,-8.887767792E-3,2.304876198E-2
7.288464167E-1,2.315089692E-2,-9.056498792E-3,2.039508820E-3,2.494281048E-2
7.387954167E-1,1.479377309E-2,-2.258022009E-2,-6.044266820E-3,2.766324679E-2
7.487454167E-1,2.756562925E-2,-3.490671257E-2,-1.816846848E-2,4.804618346E-2
7.586954166E-1,1.662915698E-2,-2.867764404E-2,1.027297318E-2,3.470547662E-2
7.686444166E-1,6.953047472E-3,-2.674994723E-2,-6.192201376E-3,2.832398108E-2
7.785944167E-1,-6.437585719E-3,-1.788709635E-2,-1.113192916E-2,2.202976560E-2
7.885444167E-1,-8.440179422E-3,-6.308024211E-3,-6.190447211E-3,1.222086064E-2
7.984934167E-1,-1.801436237E-2,-1.887816971E-3,-1.981212080E-2,2.684401674E-2
8.084434167E-1,-2.842671626E-2,1.915479097E-2,-9.334495068E-3,3.552628623E-2
8.183934166E-1,-2.741632425E-2,2.668583343E-2,2.640602589E-3,3.835050617E-2
8.283424166E-1,-2.619625931E-2,3.541198509E-2,-4.094805121E-3,4.423822012E-2
8.382924167E-1,-1.177260584E-2,2.582788929E-2,-1.891457319E-2,3.410916581E-2
8.482424167E-1,8.878348293E-3,2.320857879E-2,-7.388541698E-3,2.592399943E-2
8.581914167E-1,2.214916838E-2,9.254570939E-3,-1.157924116E-2,2.665167104E-2
8.681414167E-1,3.617854821E-2,-2.180698521E-3,-1.546997845E-2,3.940765192E-2
8.780914166E-1,2.629570537E-2,-3.091057464E-3,-5.440249443E-3,2.702989218E-2
8.880404167E-1,3.062337357E-2,-2.689655246E-3,1.894497871E-3,3.079958403E-2
8.979904166E-1,4.144021775E-2,4.657862296E-3,-1.846316814E-2,4.560565652E-2
9.079404167E-1,2.766548645E-2,1.758952104E-3,-2.624639690E-2,3.817520665E-2
9.178894167E-1,1.179875157E-2,7.634565581E-3,-2.055764079E-2,2.490208275E-2
9.278394167E-1,-5.785888410E-4,1.095244705E-2,-1.891106486E-2,2.186136399E-2
9.377894167E-1,-1.543305648E-2,1.649962973E-2,-4.839740396E-3,2.310498000E-2
9.477384167E-1,-2.541677064E-2,1.422023432E-2,-2.369993448E-2,3.754882406E-2
9.576884166E-1,-3.534530171E-2,1.434290023E-3,-3.192579746E-3,3.551816586E-2
9.676384167E-1,-4.283790329E-2,-8.494327837E-3,-4.840325117E-3,4.393937085E-2
9.775874167E-1,-3.581361800E-2,-1.957342192E-2,-2.190600872E-2,4.632070054E-2
9.875374167E-1,-2.854684229E-2,-1.662531061E-2,-1.337492108E-2,3.564002906E-2
9.974874167E-1,-1.827832761E-2,-9.383597975E-3,-1.681776166E-2,2.655157770E-2
1.007436417E0,7.925777477E-3,-1.117334389E-2,-4.693560004E-3,1.448071365E-2
1.017386417E0,2.492057730E-2,-3.611982709E-3,-1.651955366E-2,3.011606291E-2
1.027336417E0,3.655992143E-2,3.230897281E-3,-9.035702348E-3,3.779828659E-2
1.037285417E0,4.304168332E-2,-1.016159286E-3,-1.999163032E-3,4.310006654E-2
1.047235417E0,4.482858329E-2,5.196066520E-3,-1.232768476E-2,4.678218463E-2
1.057185417E0,3.844017128E-2,9.742989319E-3,-1.861461103E-2,4.380726370E-2
1.067134417E0,2.483810186E-2,2.954113847E-3,-1.292643964E-2,2.815583305E-2
1.077084417E0,6.591780907E-3,-7.335763725E-3,-3.496050239E-3,1.046362137E-2
1.087034417E0,-7.130613250E-3,3.797894474E-3,-7.537645698E-3,1.104924207E-2
1.096983417E0,-1.349646323E-2,2.559230360E-4,-1.307612836E-2,1.879375293E-2
1.106933417E0,-2.089309966E-2,6.844028877E-4,-2.160838544E-2,3.006513500E-2
1.116880167E0,-2.631357136E-2,3.771529470E-3,-1.549512148E-3,2.662760710E-2
1.126829167E0,-3.429232781E-2,-7.810891110E-3,-1.696861982E-2,3.905006818E-2
1.136779167E0,-2.556343069E-2,-1.488552641E-3,-1.172951460E-2,2.816533846E-2
1.146729167E0,-2.279830753E-2,-7.326837585E-3,-1.801644087E-2,2.996727410E-2
1.156678167E0,-1.036183259E-2,-4.163128466E-3,-1.262764692E-2,1.685694753E-2
1.166628167E0,-4.256110615E-4,-3.973532498E-3,-1.621959150E-2,1.670464767E-2
1.176578167E0,1.596526046E-2,2.961009450E-3,-1.217741132E-2,2.029646434E-2
1.186527167E0,2.737215037E-2,4.788015378E-3,-9.782391787E-3,2.945937705E-2
1.196477167E0,2.831270698E-2,-3.260384607E-3,-1.023145795E-2,3.028072351E-2
1.206427167E0,3.224503945E-2,6.565653447E-3,-1.891281903E-2,3.795451354E-2
1.216377167E0,3.597641956E-2,1.161216829E-2,-1.427188396E-2,4.040831460E-2
1.226326167E0,1.943408231E-2,-3.915076330E-4,-1.876196086E-2,2.701569931E-2
1.236276167E0,1.553472038E-2,5.303895115E-3,-9.181298018E-3,1.880837776E-2
1.246226167E0,-1.988427909E-3,2.546512666E-3,-1.337258220E-2,1.375734447E-2
1.256175167E0,-8.139543459E-3,2.650227654E-4,-1.397016764E-2,1.617059024E-2
1.266125167E0,-2.569085659E-2,9.962947411E-4,-5.137948394E-3,2.621852836E-2
1.276075167E0,-2.997380273E-2,-5.150629543E-3,-6.634835601E-3,3.112842557E-2
1.286024167E0,-3.128327754E-2,-3.166260424E-3,-1.651487589E-2,3.551633124E-2
1.295974167E0,-2.789589415E-2,-1.187245390E-2,-1.471978068E-2,3.370175092E-2
1.305924167E0,-1.873875473E-2,2.960315093E-3,-2.310117960E-2,2.989262272E-2
1.315873167E0,-8.994696464E-3,-5.691611194E-3,-8.880166411E-3,1.386204739E-2
1.325823167E0,3.345007065E-3,2.613113823E-3,-1.995069981E-3,4.690174874E-3
1.335773167E0,1.329975010E-2,1.134950040E-2,-1.696511149E-2,2.436205082E-2
1.345722167E0,2.604529836E-2,-8.491095880E-3,-2.938869059E-2,4.017650322E-2
1.355672167E0,3.151751335E-2,-8.585825341E-3,-1.082553506E-2,3.441311165E-2
1.365622167E0,2.998028949E-2,-1.422817146E-3,2.796138525E-3,3.014399703E-2
1.375571167E0,1.735746652E-2,-1.314415250E-3,1.448355317E-3,1.746731417E-2
1.385521167E0,1.193814599E-2,-3.551292722E-3,-1.741242349E-2,2.140849134E-2
1.395471167E0,1.058951996E-2,1.669800337E-3,-1.875962198E-2,2.160670227E-2
1.405420167E0,-5.402843251E-3,1.706271660E-2,-7.083901763E-3,1.924860195E-2
1.415370167E0,-1.853410218E-2,7.572690162E-3,-2.293277979E-3,2.015236224E-2
1.425320167E0,-2.109963885E-2,7.385999530E-3,-6.933628321E-3,2.340561793E-2
1.435269167E0,-1.642204906E-2,1.921762798E-3,-1.366962075E-2,2.145309765E-2
1.445219167E0,-2.032463153E-2,8.139141463E-4,-2.592655420E-3,2.050548622E-2
1.455169167E0,-2.406956302E-2,-3.769403002E-3,-1.022678018E-2,2.642232571E-2
1.465119167E0,-1.455724408E-2,-9.791153474E-3,-6.783939600E-3,1.880962195E-2
1.475068167E0,-5.044207934E-3,-1.787587700E-2,-1.741125405E-2,2.545864843E-2
1.485018167E0,-2.469660609E-3,-1.123441989E-4,-7.530629039E-3,7.926046837E-3
1.494968167E0,1.204445797E-2,1.147280813E-3,3.397817016E-3,1.256703551E-2
1.504917167E0,2.410363447E-2,-8.049471213E-3,-3.338175416E-3,2.563050130E-2
1.514867167E0,2.743895480E-2,-4.752927516E-3,-1.216864049E-2,3.039016901E-2
1.524817167E0,3.231476750E-2,1.010035698E-3,-1.839534044E-3,3.238283891E-2
1.534766167E0,2.097992853E-2,1.344971519E-3,-3.037043810E-3,2.124123313E-2
1.544716167E0,1.352082510E-2,-6.800857696E-3,-4.683035016E-3,1.584282784E-2
1.554666167E0,1.154119543E-2,-3.496034250E-3,-3.634044528E-3,1.259474998E-2
1.564615167E0,-6.140601982E-3,-2.724866448E-3,3.701872230E-3,7.670446393E-3
1.574565167E0,-1.412040682E-2,2.569038151E-3,-6.385159492E-4,1.436640346E-2
1.584515167E0,-2.029361616E-2,7.241685223E-3,-5.278866291E-3,2.218421266E-2
1.594464167E0,-2.178106788E-2,1.033253027E-2,-1.141610384E-2,2.667402345E-2
1.604414167E0,-1.714644142E-2,4.002761724E-4,-1.425960481E-2,2.230464086E-2
1.614364167E0,-1.612646774E-2,7.484244173E-3,-1.381053865E-2,2.251239326E-2
1.624313167E0,-1.570548648E-2,1.884151041E-3,-7.673885822E-3,1.758126430E-2
1.634263167E0,2.028684618E-3,3.110588535E-3,-9.321046472E-3,1.003360502E-2
1.644213167E0,7.196599992E-3,7.584489661E-3,-2.114587069E-2,2.358947608E-2
1.654162167E0,7.029979471E-3,6.280076348E-3,-1.860116243E-2,2.085337417E-2
1.664112167E0,1.297293414E-2,-2.332326416E-3,-1.905022860E-2,2.316566374E-2
1.674062167E0,1.509693523E-2,3.414618624E-3,-3.333497643E-3,1.583317025E-2
1.684012167E0,7.763786763E-3,5.170240556E-3,-9.770697355E-3,1.350830482E-2
1.693961167E0,8.938798453E-3,4.715489347E-3,-1.276388705E-2,1.628050276E-2
1.703911167E0,1.996103293E-2,-3.346800059E-3,-1.620614290E-2,2.592842020E-2
1.713861167E0,7.199761143E-3,3.193438556E-3,-1.306267977E-2,1.525346561E-2
1.723810167E0,4.849397438E-3,-6.034111851E-3,-2.883846760E-3,8.260976545E-3
1.733760167E0,-8.750700834E-3,-1.748584716E-3,-1.515832186E-2,1.758996973E-2
1.743710167E0,-6.056593938E-3,-5.749615117E-3,-1.515832186E-2,1.730650530E-2
1.753659167E0,-6.650458630E-3,7.352188462E-5,-2.135403156E-3,6.985266788E-3
1.763609167E0,-3.326341657E-3,7.518694780E-3,-1.500804842E-2,1.711247607E-2
1.773559167E0,-1.533172835E-2,7.040703173E-3,-9.169603586E-3,1.920195368E-2
1.783508167E0,-2.632446180E-3,-2.361564778E-3,-3.632290363E-3,5.069545776E-3
1.793458167E0,-1.281287118E-3,3.478111164E-4,-4.380733967E-3,4.577499245E-3
1.803408167E0,9.991374929E-3,8.235689043E-3,-1.171665072E-2,1.746236099E-2
1.813357167E0,1.653339512E-2,-3.976613707E-3,1.903853416E-3,1.711114457E-2
1.823307167E0,9.563358743E-3,5.281810455E-3,-1.538402438E-3,1.103277092E-2
1.833257167E0,1.225630533E-2,-3.477220377E-3,-9.322800636E-3,1.578678858E-2
1.843207167E0,9.742808877E-3,9.912606538E-4,-7.675639987E-3,1.244268346E-2
1.853156167E0,1.459574891E-2,-1.247999102E-3,-1.111848056E-2,1.839059537E-2
1.863106167E0,4.771451312E-3,-1.129819108E-2,-1.052031040E-2,1.615836626E-2
1.873056167E0,1.284046273E-3,1.765539357E-4,-1.096937656E-2,1.104568551E-2
1.883005167E0,-4.144732577E-3,1.133697457E-2,-9.773036242E-3,1.553119563E-2
1.892955167E0,-1.185907382E-2,-6.277282932E-4,-4.384242296E-3,1.265911748E-2
1.902905167E0,-1.082575433E-2,-3.783054880E-3,-2.294622838E-2,2.565224860E-2
1.912854167E0,-7.504213785E-3,5.419044150E-3,-1.471334875E-2,1.738280459E-2
1.922804167E0,-8.704628886E-3,-3.715236315E-3,-8.127629757E-3,1.247525192E-2
1.932754167E0,-4.565670434E-3,-3.011935044E-3,-1.231891394E-2,1.347860304E-2
1.942703167E0,-9.462348092E-4,3.013097635E-3,-9.431558847E-4,3.296006780E-3
1.952653167E0,2.717269636E-3,-5.588599700E-3,-7.080393434E-3,9.420614208E-3
1.962603167E0,-1.443942497E-3,3.278341955E-3,-5.882883668E-3,6.887729390E-3
1.972553167E0,2.994509884E-3,-1.534154071E-3,-9.924479127E-3,1.047931315E-2
1.982502167E0,1.183542001E-2,-3.611482498E-3,-1.022444129E-2,1.605176540E-2
1.992452167E0,1.634105598E-2,4.790514149E-4,-2.890863419E-3,1.660170751E-2
2.002402167E0,1.125955606E-2,9.810782759E-4,-1.217156410E-2,1.660984919E-2
2.012351167E0,1.393327079E-2,1.599944383E-4,-2.249950111E-2,2.646486696E-2
2.022301167E0,4.206955174E-3,-4.582106592E-3,-1.202012122E-2,1.353430777E-2
2.032251167E0,-3.932439820E-3,-5.027340087E-3,-8.128799200E-3,1.033516365E-2
2.042200167E0,-9.165081130E-3,5.195596002E-3,-1.516358435E-2,1.846421459E-2
2.052150167E0,-6.727452299E-3,1.827158961E-3,-3.187901974E-3,7.665496937E-3
2.062100167E0,-9.511556067E-3,-1.959899892E-3,1.153655648E-3,9.779663990E-3
2.072049167E0,-6.242140252E-3,-7.511091116E-4,-7.079808712E-3,9.468483048E-3
2.081999167E0,-5.535538502E-3,2.107094410E-3,-1.157047033E-2,1.299837748E-2
2.091949167E0,-1.571683602E-3,3.560828709E-3,-1.127167761E-2,1.192478120E-2
2.101898167E0,-6.015882699E-3,4.425474303E-4,-6.781600714E-3,9.076166653E-3
2.111848167E0,8.037486705E-3,-3.549988519E-3,2.049449086E-3,9.022408358E-3
2.121798167E0,1.307610324E-2,-1.826482876E-3,-8.129383922E-3,1.550507654E-2
2.131748167E0,6.285804792E-3,4.908627905E-3,-1.291942298E-2,1.518280146E-2
2.141697167E0,8.009541126E-3,8.993951858E-3,-1.097288489E-2,1.629257874E-2
2.151647167E0,1.294732745E-2,2.720576967E-3,-1.441514075E-2,1.956607038E-2
2.161597167E0,5.729921877E-3,1.305449823E-2,-9.176035523E-3,1.695439638E-2
2.171546167E0,1.424308871E-2,4.281687615E-3,-8.876658082E-3,1.732031996E-2
2.181496167E0,4.109921088E-3,1.066591749E-2,-1.392222047E-3,1.151483954E-2
2.191446167E0,1.395545367E-3,7.799594107E-3,-1.392222047E-3,8.044842903E-3
2.201395167E0,3.003093414E-4,9.629587596E-4,-6.032572389E-3,6.116322825E-3
2.211345167E0,-1.937737574E-3,7.146599446E-3,-1.092259884E-3,7.484767345E-3
2.221295167E0,-9.881362764E-3,-4.556783123E-3,-2.887939811E-3,1.125814367E-2
2.231244167E0,5.429301902E-3,-6.911363220E-5,-9.474243522E-3,1.091986200E-2
2.241194167E0,-8.964112785E-3,-3.573082737E-4,-4.384827018E-3,9.985474210E-3
2.251144167E0,-4.341178467E-3,3.681729028E-3,9.236846566E-3,1.084989832E-2
2.261094167E0,3.372107539E-4,1.533169637E-3,-1.875435948E-2,1.881994474E-2
2.271043167E0,3.077090385E-3,-2.081597352E-3,1.305098534E-3,3.937615389E-3
2.280993167E0,2.770127552E-3,-7.496173864E-3,-1.066941440E-2,1.333051510E-2
2.290943167E0,4.563662738E-3,6.618123071E-3,-7.376262546E-3,1.091035378E-2
2.300892167E0,-7.563039972E-3,8.085614315E-3,-7.825913429E-3,1.355808443E-2
2.310842167E0,-1.510669277E-3,1.194595294E-3,-1.007182896E-2,1.025431218E-2
2.320792167E0,6.892869116E-3,-1.876017472E-3,-9.174281359E-3,1.162749004E-2
2.330741167E0,2.912276562E-3,7.998860821E-3,-1.156871617E-2,1.436308891E-2
2.340691167E0,2.619899791E-3,5.818107482E-3,-3.036459088E-3,7.066422955E-3
2.350641167E0,-6.053857624E-3,6.425726835E-3,7.051742077E-4,8.856434280E-3
2.360590167E0,4.432545779E-3,-4.017950781E-3,-1.201953650E-2,1.342611813E-2
2.370540167E0,-7.330400732E-3,-5.021250760E-3,-2.189840734E-2,2.363235025E-2
2.380490167E0,-4.706611172E-3,-5.015433237E-3,2.499099970E-3,7.317940964E-3
2.390440167E0,-2.400919280E-3,-1.059442386E-3,-2.889693975E-3,3.903480861E-3
2.400389167E0,7.700227986E-3,-5.323588355E-3,-2.291523814E-3,9.637696062E-3
2.410339167E0,-7.342951689E-3,1.269343724E-3,-5.284128785E-3,9.135217021E-3
2.420289167E0,-2.325773423E-3,-3.202449207E-3,-6.182845831E-3,7.341150149E-3
2.430238167E0,-1.645650880E-3,-6.427437603E-4,4.893534780E-3,5.202688632E-3
2.440188167E0,3.075420731E-3,4.945394557E-3,-8.728138804E-3,1.049264252E-2
2.450138167E0,1.086951937E-2,3.321122560E-3,-5.136194229E-3,1.247224108E-2
2.460087167E0,1.148148759E-3,2.847447842E-3,-1.561440468E-2,1.591338551E-2
2.470037167E0,9.471358743E-3,6.091467098E-3,-8.279657364E-3,1.397731497E-2
2.479987167E0,1.314299219E-2,9.297751256E-3,-7.382109761E-3,1.771106904E-2
2.489937167E0,2.631770095E-3,4.357642033E-3,-1.486654580E-2,1.571398873E-2
2.499886167E0,1.136859521E-2,9.240105932E-3,-7.082732320E-3,1.627235729E-2
2.509836167E0,3.171337908E-4,3.450005699E-3,-1.366903603E-2,1.410126445E-2
2.519786167E0,-1.740750361E-3,-1.957117897E-3,-1.591436684E-2,1.612847154E-2
2.529735167E0,-7.667995209E-3,1.604489679E-4,2.497345805E-3,8.066017014E-3
2.539685167E0,-3.461734392E-3,-2.883134130E-4,-8.878996968E-3,9.534323090E-3
2.549635167E0,-6.625544010E-3,5.092125409E-3,-9.926818013E-3,1.297571927E-2
2.559584167E0,8.923698475E-3,-9.103543754E-4,4.892365336E-3,1.021745458E-2
2.569534167E0,3.735836330E-3,-8.466153850E-3,1.017415524E-4,9.254327930E-3
2.579484167E0,-2.705399331E-3,-3.776056494E-3,-9.478921294E-3,1.055593374E-2
2.589434167E0,7.321447183E-3,9.163843165E-4,-1.411927164E-2,1.593101317E-2
2.599383167E0,2.141620391E-3,-4.003469786E-4,-3.940438628E-3,4.502651684E-3
2.609333167E0,1.702875935E-3,-6.429653149E-6,-1.007767618E-2,1.022053741E-2
2.619283167E0,6.664514788E-3,4.572068111E-3,-1.860993326E-2,2.028913946E-2
2.629232167E0,1.316868339E-3,3.719866122E-3,-5.736703277E-3,6.962852194E-3
2.639182167E0,4.787665915E-3,5.929250261E-3,-5.587014556E-3,9.449470103E-3
2.649132167E0,4.096997827E-3,1.724622552E-3,-6.036080718E-3,7.496264708E-3
2.659081167E0,3.302891124E-3,-1.848062756E-3,-1.022736490E-2,1.090520144E-2
2.669031167E0,5.808637734E-4,3.461917117E-4,-7.969754934E-4,1.045189629E-3
2.678981167E0,4.128047456E-3,-4.229389296E-3,-1.771238565E-2,1.867236234E-2
2.688931167E0,-2.908176659E-3,8.377187094E-4,-4.988259673E-3,5.834552141E-3
2.698880167E0,-2.758085942E-3,4.737647097E-3,-3.491957188E-3,6.499700230E-3
2.708830167E0,2.245559217E-4,2.499422024E-3,-1.801234782E-2,1.818631930E-2
2.718780167E0,-5.151100061E-4,-3.450542456E-4,2.644695640E-3,2.716397573E-3
2.728729167E0,-5.775699180E-3,4.168744991E-3,-7.683826089E-3,1.047751493E-2
2.738679167E0,7.355596293E-3,9.788063129E-3,-1.067876995E-2,1.624644897E-2
2.748629167E0,1.289973888E-2,7.233028603E-3,-8.881920576E-3,1.725133268E-2
2.758578167E0,1.246713172E-3,8.713401994E-4,-1.217507243E-2,1.226971541E-2
2.768528167E0,3.375990456E-3,2.369170727E-3,-4.690636396E-3,6.245986815E-3
2.778478167E0,3.168000884E-3,1.038013254E-3,-8.881920576E-3,9.486949680E-3
2.788428167E0,7.494572732E-3,8.063415452E-3,-6.037834883E-3,1.255558598E-2
2.798377167E0,1.321562100E-4,5.960416377E-3,-1.771413982E-2,1.869049968E-2
2.808327167E0,-2.514553978E-3,5.972211307E-3,-8.582543135E-3,1.075408463E-2
2.818277167E0,-4.222945939E-3,7.746946325E-3,-8.881920576E-3,1.251946336E-2
2.828226167E0,-9.828370088E-4,4.003458365E-3,-4.540947676E-3,6.133013392E-3
2.838176167E0,7.275139976E-3,3.667220625E-3,-2.340114176E-2,2.477881362E-2
2.848126167E0,5.534044721E-3,2.180600306E-4,-1.022794962E-2,1.163117168E-2
2.858075167E0,-5.151488353E-4,-8.088695523E-3,-9.478336573E-4,8.160316307E-3
2.868025167E0,5.242346318E-3,2.772148952E-3,4.140413404E-3,7.232567171E-3
2.877975167E0,5.634900054E-3,-1.661011241E-3,-9.929741621E-3,1.153736649E-2
2.887925167E0,1.636005258E-3,-1.508202483E-3,-3.493126631E-3,4.141632721E-3
2.897874167E0,-5.268083203E-3,2.886788640E-3,-1.067818522E-2,1.225193409E-2
2.907824167E0,2.787219237E-3,1.508106552E-3,-8.133476973E-3,8.729056313E-3
2.917774167E0,9.411550406E-3,4.545358212E-3,-1.307320476E-2,1.673756986E-2
2.927723167E0,-8.837538839E-3,9.390621486E-3,-1.112783611E-2,1.703275084E-2
2.937673167E0,-8.872921346E-4,-7.176276350E-3,-6.038419604E-3,9.420655014E-3
2.947623167E0,1.462130535E-3,7.528790364E-3,-3.344022632E-3,8.366779392E-3
2.957573167E0,3.025856442E-3,4.731132933E-3,-1.921102703E-2,2.001506896E-2
2.967522167E0,-2.764933580E-3,3.646426464E-3,-1.816203654E-2,1.872967845E-2
2.977472167E0,-1.158020275E-2,8.090477097E-3,-1.681542277E-2,2.196167932E-2
2.987422167E0,-1.891649638E-3,5.469200013E-3,-6.935967207E-3,9.033168228E-3
2.997371167E0,-2.856120451E-3,9.000847461E-3,-1.232534587E-2,1.552697105E-2
3.007321167E0,-1.669288706E-4,7.999607711E-3,-9.930326343E-3,1.275276323E-2
3.017271167E0,-4.492730987E-3,-2.215937132E-3,-9.780637622E-3,1.098889810E-2
3.027220167E0,1.112416789E-3,-3.340619369E-3,-6.486901045E-3,7.380859980E-3
3.037170167E0,-3.236799315E-4,9.067752399E-6,-1.172659099E-2,1.173106079E-2
3.047120167E0,-2.043942197E-3,1.836313508E-3,-2.025884807E-2,2.044433105E-2
3.057070167E0,-1.182699865E-3,-3.921069726E-3,-1.082845867E-2,1.157709307E-2
3.067019167E0,9.312239103E-4,2.233076782E-3,-2.445890307E-3,3.440376329E-3
3.076969167E0,3.204372393E-3,8.282816231E-3,-7.834099531E-3,1.184255727E-2
3.086919167E0,5.224864057E-3,5.830016616E-4,1.147223711E-3,5.381005259E-3
3.096868167E0,8.031191812E-3,9.384648646E-3,-5.139702559E-3,1.337864771E-2
3.106818167E0,-1.661717019E-3,4.792101576E-3,9.975349903E-4,5.169198877E-3
3.116768167E0,-2.485071220E-3,-5.320251330E-3,-1.398069263E-3,6.036161930E-3
3.126718167E0,-2.628693455E-3,-1.543470786E-3,-3.344607353E-3,4.525343047E-3
3.136667167E0,-3.120907957E-3,2.102169958E-3,-1.576935589E-2,1.621208717E-2
3.146617167E0,-1.934871068E-3,8.623432531E-4,-9.182467461E-3,9.423644232E-3
3.156567167E0,-3.686187530E-3,3.569097037E-3,-2.596163750E-3,5.750347675E-3
3.166516167E0,3.595334133E-3,2.847402161E-3,-9.781222343E-3,1.080307536E-2
3.176466167E0,4.814405506E-3,1.218493504E-3,-1.247620404E-2,1.342828708E-2
3.186416167E0,5.505461886E-3,-2.555772280E-3,-6.507951021E-4,6.104557051E-3
3.196365167E0,6.836263044E-3,-4.404830891E-3,-4.842664003E-3,9.465116071E-3
3.206315167E0,6.827946750E-3,-7.327643861E-3,-5.740211606E-3,1.154405694E-2
3.216265167E0,-8.901380841E-4,-2.975136414E-4,-3.514176607E-4,1.002174909E-3
3.226215167E0,-4.596994151E-3,-3.299682008E-3,-1.382398725E-2,1.493729828E-2
3.236164167E0,4.062903535E-3,-6.409123940E-3,-2.370285809E-2,2.488793958E-2
3.246114167E0,-4.697232787E-4,-1.810103820E-3,-1.681659222E-2,1.692025087E-2
3.256064167E0,-1.339313881E-3,4.441864779E-3,-5.005216599E-4,4.666309711E-3
3.266013167E0,4.684686398E-3,2.987897506E-3,-9.495878220E-4,5.636979260E-3
3.275963167E0,-6.867842576E-3,1.438940386E-3,-1.427188396E-2,1.590359969E-2
3.285913167E0,-1.874219910E-3,3.468531780E-3,-1.412219524E-2,1.466218986E-2
3.295863167E0,-2.600380140E-3,-2.260158984E-3,-9.332156181E-3,9.947835669E-3
3.305812167E0,-2.853315615E-3,8.072213684E-3,-2.745852470E-3,8.991204010E-3
3.315762167E0,-1.097489259E-2,-7.609173590E-3,-1.517001629E-2,2.021081850E-2
3.325712167E0,-2.978966797E-3,-9.666429623E-4,-9.481844902E-3,9.985690990E-3
3.335661167E0,1.803253898E-3,3.319475746E-3,-4.093050957E-3,5.569893175E-3
3.345611167E0,-1.955608127E-3,2.065263977E-3,3.990139961E-3,4.900095443E-3
3.355561167E0,1.044798537E-2,9.078811859E-3,-9.481844902E-3,1.677768178E-2
3.365511167E0,7.819508901E-4,-9.460977651E-4,-5.290560722E-3,5.431075486E-3
3.375460167E0,3.350566488E-3,-1.743758479E-3,-7.535306811E-3,8.428987968E-3
3.385410167E0,-1.451141881E-3,-3.792689082E-3,-1.412161052E-2,1.469388264E-2
3.395360167E0,-6.964444974E-4,-4.234665495E-3,-6.338381767E-3,7.654574464E-3
3.405309167E0,7.424132056E-3,-5.939044347E-3,-1.097931683E-2,1.452361465E-2
3.415259167E0,2.692400697E-3,-1.582087534E-3,-1.606814861E-2,1.636879416E-2
3.425209167E0,3.139874863E-3,-1.725794279E-3,-7.684995532E-3,8.479170736E-3
3.435159167E0,-1.671298686E-4,-3.239302654E-3,-6.935967207E-3,7.656935103E-3
3.445108167E0,-8.844918665E-4,4.199264715E-3,-1.831172526E-2,1.880785559E-2
3.455058167E0,-1.124447207E-2,4.230889929E-3,-1.846141398E-2,2.202640206E-2
3.465008167E0,1.588414405E-3,1.076401595E-2,-1.292293131E-2,1.689346778E-2
3.474957167E0,6.166117312E-3,8.891043146E-3,-3.043475747E-3,1.123985745E-2
3.484907167E0,-4.101502011E-5,1.466548152E-2,-1.022794962E-2,1.787984854E-2
3.494857167E0,-8.326023957E-4,4.277941743E-3,-1.127577066E-2,1.208871442E-2
3.504807167E0,-4.897269232E-3,6.408868125E-3,-1.995069981E-3,8.308859175E-3
3.514756167E0,-1.967421330E-3,-3.055617856E-3,-1.142545938E-2,1.198952332E-2
3.524706167E0,5.344329982E-3,-7.656563446E-3,-7.233590484E-3,1.181142066E-2
3.534656167E0,-3.019129860E-3,3.667613484E-3,-1.187394083E-2,1.278894071E-2
3.544605167E0,2.597721484E-3,3.492037130E-3,-5.287052393E-3,6.848021848E-3
3.554555167E0,4.940933771E-3,1.812940633E-3,-1.022736490E-2,1.150211168E-2
3.564505167E0,4.269769345E-4,7.682464784E-4,-9.928572178E-3,9.967399733E-3
3.574455167E0,6.855049508E-3,3.452917887E-3,-9.329817295E-3,1.208138388E-2
3.584404167E0,-6.374750992E-3,-2.298631836E-3,-1.052791178E-2,1.252030691E-2
3.594354167E0,-1.827659172E-3,4.701227623E-3,-2.100612223E-2,2.160321852E-2
3.604304167E0,4.510871060E-3,7.994865985E-3,-4.390089512E-3,1.017539806E-2
3.614254167E0,6.386221584E-3,-4.265361093E-4,6.987422705E-4,6.438478076E-3
3.624203167E0,1.676300797E-4,2.116077652E-3,-1.217565715E-2,1.235930870E-2
3.634153167E0,-6.204007727E-3,5.772522041E-3,1.146638989E-3,8.551403601E-3
3.644103167E0,-4.005909171E-3,1.035986372E-2,2.792630196E-3,1.145307242E-2
3.654052167E0,9.271970973E-4,4.056875878E-3,-2.055881023E-2,2.097576255E-2
3.664002167E0,4.058054457E-3,7.610790711E-4,-8.134646416E-3,9.122473329E-3
3.673952167E0,5.337388697E-4,3.619915280E-3,-4.691805840E-3,5.949933264E-3
3.683902167E0,4.048162156E-3,3.813122360E-3,-7.536476254E-3,9.366215527E-3
3.693851167E0,-3.435102152E-4,3.670014041E-3,-5.889900327E-3,6.948232019E-3
3.703801167E0,3.102770168E-3,-4.535849635E-3,3.390800357E-3,6.457448543E-3
3.713751167E0,7.922246307E-3,4.199376635E-3,3.970259428E-4,8.975209205E-3
3.723700167E0,3.211256575E-3,3.104766444E-3,3.970259428E-4,4.484347563E-3
3.733650167E0,3.187897406E-3,5.433607372E-3,-7.835268974E-3,1.005376640E-2
3.743600167E0,-1.684466342E-3,-4.874688929E-3,-1.202713788E-2,1.308633121E-2
3.753550167E0,-5.472429686E-3,-4.456485102E-3,-5.141456723E-3,8.731685025E-3
3.763499167E0,-8.012875866E-3,2.795599485E-3,-1.187686443E-2,1.459731019E-2
3.773449167E0,1.006584470E-3,3.644647175E-3,-4.691221118E-3,6.025298408E-3
3.783399167E0,-1.917297444E-3,2.539151113E-3,-1.008001506E-2,1.057024226E-2
3.793348167E0,1.350320808E-3,-6.367480801E-4,-1.472095013E-2,1.479645860E-2
3.803298167E0,-1.780577665E-3,5.874418910E-3,-8.883090019E-3,1.079761745E-2
3.813248167E0,-1.475069784E-3,1.050917785E-2,-1.067993939E-2,1.505588773E-2
3.823198167E0,7.897178654E-3,7.984797810E-3,-1.187744915E-2,1.634613793E-2
3.833147167E0,1.220926037E-3,2.752106250E-3,-2.055939496E-2,2.077867826E-2
3.843097167E0,2.077275894E-3,5.174048098E-3,-1.142779827E-2,1.271536166E-2
3.853047167E0,8.622199134E-4,-6.616245566E-3,-9.631533623E-3,1.171684977E-2
3.862997167E0,8.515281882E-4,7.259839000E-3,-1.517060101E-2,1.683975943E-2
3.872946167E0,-2.854688340E-3,5.100201876E-3,-1.651721478E-2,1.752083584E-2
3.882896167E0,4.189086906E-3,4.399148128E-3,-4.991768003E-3,7.862486957E-3
3.892846167E0,-4.718323876E-3,-4.661633293E-3,-1.023028851E-2,1.219230118E-2
3.902795167E0,6.463914178E-6,-2.488887899E-3,-1.696686566E-2,1.714844410E-2
3.912745167E0,6.450956657E-3,8.698966680E-4,-1.457126141E-2,1.595911091E-2
3.922695167E0,-3.689366954E-3,3.141478279E-3,3.391969800E-3,5.914877296E-3
3.932645167E0,-3.523210099E-3,-4.606630637E-3,-7.385618091E-3,9.390495717E-3
3.942594167E0,-1.158450593E-2,1.145190890E-3,-6.188108325E-3,1.318350957E-2
3.952544167E0,-2.515198085E-3,3.792227700E-3,-1.202655315E-2,1.285866218E-2
3.962494167E0,5.522204109E-3,-3.026162507E-5,-1.187686443E-2,1.309792208E-2
3.972443167E0,3.012967443E-3,5.534129231E-3,9.963655472E-4,6.379443821E-3
3.982393167E0,6.581153136E-3,1.914613664E-3,-6.502103806E-4,6.884772736E-3
3.992343167E0,-1.201488613E-3,3.179706736E-3,-5.204021931E-5,3.399532026E-3
4.002293167E0,7.963389235E-3,-1.531187065E-3,-7.835853696E-3,1.127655555E-2
4.012242167E0,8.487423097E-3,-1.702567586E-4,-6.638343930E-3,1.077649982E-2
4.022192167E0,3.321992790E-3,2.453918809E-3,-1.698031425E-3,4.465497099E-3
4.032142167E0,8.006667767E-3,-1.727671784E-3,-5.889900327E-3,1.008873155E-2
4.042092167E0,-2.143390544E-3,-4.406589624E-3,-1.232651532E-2,1.326480814E-2
4.052041167E0,-4.449616908E-4,5.555540090E-4,-5.740211606E-3,5.784173272E-3
4.061991167E0,-9.471712774E-4,-3.446999865E-3,-7.387372255E-3,8.206839242E-3
4.071941167E0,2.014799765E-4,-4.900898617E-3,-1.367371380E-2,1.452686651E-2
4.081890167E0,-2.234492905E-3,6.119606823E-3,-1.292585492E-2,1.447481508E-2
4.091840167E0,1.158180388E-3,6.906747117E-3,-9.333910346E-3,1.166903680E-2
4.101790167E0,2.152732385E-3,5.752061354E-4,-6.339551210E-3,6.719749130E-3
4.111740167E0,-6.402600640E-3,-2.981828735E-4,-4.992937446E-3,8.124754293E-3
4.121688667E0,1.398185750E-3,-2.921111339E-3,-1.997993588E-3,3.805232349E-3
4.131638667E0,3.508811330E-3,1.197573034E-2,-1.232534587E-2,1.753978407E-2
4.141588667E0,9.039365994E-3,6.812869613E-3,-9.630948901E-3,1.486204921E-2
4.151538667E0,4.284645484E-3,1.693775520E-2,-4.242154956E-3,1.797892146E-2
4.161487667E0,3.044327705E-3,1.293486557E-2,-1.262472332E-2,1.832927487E-2
4.171437667E0,1.496233963E-3,1.185425901E-2,-3.194333911E-3,1.236794008E-2
4.181387667E0,-9.844084480E-4,8.704548944E-3,-9.032778740E-3,1.258289808E-2
4.191336667E0,6.703965222E-3,6.171571668E-3,-1.067935467E-2,1.403852067E-2
4.201286667E0,-6.773501406E-3,-1.058711484E-4,-1.127869427E-2,1.315676535E-2
4.211236667E0,-1.806216335E-3,1.146230141E-3,-1.247620404E-2,1.265827509E-2
4.221186667E0,-5.180459479E-3,-6.812348845E-4,-1.008176923E-2,1.135532087E-2
4.231135667E0,-5.387270472E-3,-2.543442878E-3,-2.023136616E-4,5.960932446E-3
4.241085667E0,-4.306102025E-3,-5.126205997E-3,-1.382398725E-2,1.535978925E-2
4.251035667E0,3.828039612E-3,-5.404809834E-3,-9.033948183E-3,1.120169971E-2
4.260985667E0,4.642209574E-4,2.964700505E-3,8.455073833E-4,3.117664657E-3
4.270934667E0,-6.359865717E-3,1.267466219E-2,-9.932665229E-3,1.731337033E-2
4.280884667E0,6.802550191E-4,-1.411280315E-3,-1.292643964E-2,1.302103302E-2
4.290834667E0,-3.349837870E-4,1.117446080E-2,-9.333910346E-3,1.456374508E-2
4.300784667E0,-3.750378995E-3,6.018356346E-3,-1.427305341E-2,1.593756598E-2
4.310733667E0,1.907713492E-3,8.232580426E-3,-1.337433636E-2,1.582048117E-2
4.320683667E0,-1.967533249E-3,-8.229430695E-4,-1.397309124E-2,1.413491073E-2
4.330633667E0,5.883271960E-3,-4.152528103E-4,-7.537060976E-3,9.570402918E-3
4.340582667E0,1.604240716E-3,1.091473936E-2,3.539904356E-3,1.158602807E-2
4.350532667E0,-2.759150318E-3,1.641790804E-3,-2.896710634E-3,4.324271039E-3
4.360482667E0,-8.466770549E-3,9.452460359E-3,-1.577052534E-2,2.024215107E-2
4.370432667E0,-2.754248707E-3,-4.969306472E-3,-3.346946239E-3,6.594083854E-3
4.380381667E0,3.888261365E-4,7.446024853E-3,-1.442391157E-2,1.623710864E-2
4.390331667E0,6.739121606E-4,1.459729979E-3,-4.095389843E-3,4.399680349E-3
4.400281667E0,-5.483788359E-3,-2.458176313E-3,-3.347530961E-3,6.878991865E-3
4.410231667E0,3.309560604E-3,7.548102164E-3,-3.197257519E-3,8.840220207E-3
4.420180667E0,-8.493172098E-4,8.932816477E-3,-2.748191357E-3,9.384514141E-3
4.430130667E0,5.577684136E-3,7.276560667E-3,-2.298540473E-3,9.452099436E-3
4.440080667E0,9.979550305E-3,-2.528667238E-3,-8.136400580E-3,1.312198905E-2
4.450030667E0,1.930855676E-3,2.706621308E-4,-4.843248725E-3,5.220969243E-3
4.459979667E0,2.018913373E-3,-2.051203251E-3,-1.023204267E-2,1.062911771E-2
4.469929667E0,-2.003891054E-3,1.243375919E-2,-1.412453413E-2,1.892396394E-2
4.479879667E0,-1.115567890E-2,9.393684422E-3,-1.457418501E-2,2.061788902E-2
4.489828667E0,-2.961500525E-3,5.755039779E-3,-2.265854537E-2,2.356481799E-2
4.499778667E0,3.242313056E-3,4.714913762E-3,-1.951508224E-2,2.033670181E-2
4.509728667E0,4.370690917E-3,4.442374127E-3,-7.690258026E-3,9.898368324E-3
4.519678667E0,3.801373111E-3,3.074753783E-3,-9.554350376E-4,4.981706983E-3
4.529627667E0,-5.929001297E-3,-5.661566556E-4,-1.703878641E-3,6.194900497E-3
4.539577667E0,1.441404896E-3,-1.058521906E-3,-1.263115525E-2,1.275712349E-2
4.549527667E0,-2.763348436E-3,9.720326790E-3,-1.846901536E-2,2.105291846E-2
4.559477667E0,-1.301818154E-2,5.863380006E-3,-1.233177781E-2,1.886597519E-2
4.569426667E0,5.999905639E-3,3.560858401E-3,-5.146134496E-3,8.669560570E-3
4.579376667E0,-2.953663885E-3,-3.880248852E-3,-4.996445775E-3,6.981757077E-3
4.589326667E0,-5.262827561E-3,-1.962985669E-3,-7.540569305E-3,9.402704511E-3
4.599276667E0,1.092965661E-3,1.465064193E-2,-1.203123093E-2,1.898911268E-2
4.609225667E0,-1.294986962E-3,6.742712162E-3,-3.199596405E-3,7.574864730E-3
4.619175667E0,-7.742083543E-3,-7.796302764E-4,-8.289597631E-3,1.136948151E-2
4.629125667E0,1.892871615E-3,1.054308485E-2,-1.921628952E-2,2.200012236E-2
4.639075667E0,1.026204620E-3,-4.277658518E-3,-1.292936325E-2,1.365722858E-2
4.649024667E0,2.129060298E-3,1.985805798E-3,-4.397106171E-3,5.273600771E-3
4.658974667E0,8.899992127E-3,8.995628364E-3,-1.951625168E-2,2.325973494E-2
4.668924667E0,-7.845003675E-3,1.388912660E-2,-1.158216476E-2,1.971290088E-2
4.678873667E0,-6.648736442E-3,9.446706790E-3,-4.697068334E-3,1.247030138E-2
4.688823667E0,-4.714744741E-3,4.262435201E-3,-5.295238495E-3,8.272649064E-3
4.698773667E0,-1.090751713E-2,2.740551147E-3,-5.057841539E-4,1.125790248E-2
4.708723667E0,1.837471530E-3,-4.017909667E-3,3.386707306E-3,5.566838070E-3
4.718672667E0,3.922725676E-3,-7.904263835E-3,-9.187145233E-3,1.273847719E-2
4.728622667E0,4.933284426E-3,-2.973423363E-4,-1.188212693E-2,1.286898007E-2
4.738572667E0,3.640405659E-3,4.491652907E-3,-6.942399144E-3,9.034622575E-3
4.748522667E0,5.705359003E-3,5.617707870E-3,-2.751699686E-3,8.466499526E-3
4.758471667E0,-3.757144406E-3,1.948685115E-3,-1.337959886E-2,1.403307426E-2
4.768421667E0,-6.064565338E-3,-1.762206901E-3,2.187443376E-3,6.683504651E-3
4.778371667E0,7.677005860E-4,-5.595273748E-3,-1.457827806E-2,1.563402200E-2
4.788321667E0,-3.088181822E-3,2.484655520E-3,-9.937927723E-3,1.069919564E-2
4.798270667E0,-4.420586396E-4,3.594162406E-3,1.288726330E-3,3.843726680E-3
4.808220667E0,1.711694724E-3,1.066131509E-2,-6.794464588E-3,1.275767563E-2
4.818170667E0,-6.651513870E-3,1.318052172E-2,-2.903142571E-3,1.504649548E-2
4.828120667E0,-5.269234374E-3,-4.925514024E-3,-1.257151365E-3,7.321608351E-3
4.838069667E0,4.348912323E-4,4.325130600E-3,-5.449020267E-3,6.970488287E-3
4.848019667E0,-8.993702894E-4,1.202675187E-2,-1.158625782E-2,1.672402456E-2
4.857969667E0,-1.125495366E-3,3.084616391E-3,-7.844039798E-3,8.503561516E-3
4.867919667E0,7.933678071E-3,1.132228115E-2,3.233510256E-3,1.419834099E-2
4.877868667E0,7.781040617E-3,2.223915383E-3,-1.368189991E-2,1.589606171E-2
4.887818667E0,8.740810817E-3,2.177729232E-3,-1.383158863E-2,1.650627524E-2
4.897768667E0,-4.041303098E-3,1.100373581E-2,4.729812741E-3,1.264062740E-2
4.907718667E0,-3.903427580E-4,-2.191929286E-3,-1.622719288E-2,1.637921580E-2
4.917667667E0,4.388426710E-4,-1.424084804E-3,3.532302976E-3,3.833766390E-3
4.927617667E0,-3.780384804E-4,6.962594879E-3,-2.604934573E-3,7.443542481E-3
4.937567667E0,5.047903557E-3,2.726533818E-3,-1.218442798E-2,1.346757595E-2
4.947516667E0,5.486145518E-3,-2.386552489E-3,-8.441625237E-3,1.034671262E-2
4.957466667E0,1.685284039E-3,9.748551026E-3,-4.549718499E-3,1.088918582E-2
4.967416667E0,5.400088665E-3,1.934666187E-2,-7.244700193E-3,2.135275074E-2
4.977366667E0,5.447688655E-3,4.318337780E-3,-5.598124266E-3,8.925488679E-3
4.987315667E0,2.022430839E-3,2.974460330E-3,-5.147888660E-3,6.279999873E-3
4.997265667E0,1.043798800E-2,3.660802392E-3,-1.412979662E-2,1.794447604E-2
5.007215667E0,3.100650553E-3,8.879465202E-3,-1.143481493E-2,1.480587480E-2
5.017165667E0,8.166687330E-5,7.560963754E-3,-1.293170214E-2,1.498011223E-2
5.027114667E0,4.314605612E-5,8.166879192E-3,-2.154114246E-3,8.446300107E-3
5.037064667E0,7.639455772E-4,6.258051074E-4,-8.291351795E-3,8.349955657E-3
5.047014667E0,-3.074447718E-3,-7.902648998E-4,-5.075383186E-4,3.214707222E-3
5.056964667E0,6.768643192E-3,8.950161694E-3,-3.201350570E-3,1.166912895E-2
5.066913667E0,4.455178615E-3,7.597401501E-3,-1.128512621E-2,1.431513883E-2
5.076863667E0,1.131299185E-3,3.265160595E-3,-1.562668383E-2,1.600419817E-2
5.086813667E0,2.985937775E-3,3.849251757E-3,-3.801274896E-3,6.179179097E-3
5.096763667E0,-6.650965693E-3,4.023827689E-3,2.784444094E-3,8.257097725E-3
5.106712667E0,-4.675205229E-3,-1.535570193E-3,-4.999369383E-3,7.014927938E-3
5.116662667E0,-2.806597275E-3,2.541229615E-3,-8.080852032E-4,3.871412910E-3
5.126612542E0,-5.537902513E-3,7.044451330E-3,-1.622602344E-2,1.853581655E-2
5.136562542E0,-1.092040385E-2,6.630514143E-4,-1.517820239E-2,1.871022943E-2
5.146511542E0,-4.850091795E-3,-2.044049548E-3,-1.622485399E-2,1.705718078E-2
5.156461542E0,6.522500538E-4,1.172499671E-2,-2.603765130E-3,1.202832369E-2
5.166411542E0,3.760988493E-3,6.873146184E-3,-9.190068841E-3,1.207652840E-2
5.176361542E0,-1.034238831E-2,3.579747649E-3,-9.639135003E-3,1.458398138E-2
5.186310542E0,-8.114359318E-4,5.488735652E-3,-7.543492913E-3,9.364236897E-3
5.196260542E0,-6.894758041E-4,6.325675494E-3,-1.008820117E-2,1.192733625E-2
5.206210542E0,2.295224005E-3,-2.393276787E-3,-5.148473382E-3,6.123937065E-3
5.216160542E0,5.988165527E-4,1.016294046E-3,-5.896916986E-3,6.013739667E-3
5.226109542E0,2.517566665E-3,2.086323090E-3,-5.081230402E-4,3.308938647E-3
5.236059542E0,-7.077848981E-4,-7.933929318E-3,-1.218384326E-2,1.455658718E-2
5.246009542E0,2.782032117E-3,-1.866232522E-3,-1.457944751E-2,1.495937218E-2
5.255959542E0,-8.951310581E-4,5.288418266E-3,-1.555944085E-3,5.584764038E-3
5.265908542E0,-4.233176282E-3,-1.933322470E-3,-1.772174120E-2,1.832259884E-2
5.275858542E0,-8.952080312E-3,9.945223038E-3,-1.143423021E-2,1.760081883E-2
5.285808542E0,5.761633886E-3,2.487163427E-3,-2.303218246E-3,6.684850128E-3
5.295758542E0,-2.660697824E-3,-2.935012181E-3,-4.997615218E-3,6.377285260E-3
5.305707542E0,6.280103757E-3,7.376552622E-3,-9.339172840E-3,1.345635096E-2
5.315657542E0,2.665569743E-3,1.149897213E-2,-1.173419237E-2,1.664400471E-2
5.325607542E0,5.292301183E-4,4.441752860E-3,-1.008761644E-2,1.103491090E-2
5.335557542E0,2.499390047E-3,-1.829858730E-4,-7.991974354E-3,8.375684360E-3
5.345506542E0,3.981556431E-3,8.812466618E-3,-8.590144515E-3,1.293456386E-2
5.355456542E0,-1.829851877E-3,4.995200958E-3,-7.092672586E-3,8.866024753E-3
5.365406542E0,1.649775908E-3,4.033457323E-3,-9.554350376E-4,4.461322072E-3
5.375356542E0,4.897241823E-3,4.538485450E-3,-5.295823216E-3,8.522122458E-3
5.385305542E0,-1.387733852E-3,2.729701821E-3,-3.649832010E-3,4.764278642E-3
5.395255542E0,-1.270518420E-2,-2.040609741E-3,1.439584494E-3,1.294828935E-2
5.405205542E0,-3.883275243E-3,4.452951648E-3,-5.445511937E-3,8.035060999E-3
5.415155542E0,-5.130662215E-3,7.071024184E-3,-5.595200658E-3,1.037445652E-2
5.425104542E0,-1.557045006E-3,5.944944096E-3,-4.097728729E-3,7.386347555E-3
5.435054542E0,5.749526038E-3,5.960528296E-4,-9.037456512E-3,1.072790515E-2
5.445004542E0,1.488833581E-3,1.963056475E-3,-1.403916478E-3,2.835700554E-3
5.454954542E0,-7.751149011E-3,3.216260970E-3,-2.451737523E-3,8.742749139E-3
5.464903542E0,3.223547149E-3,4.691072654E-3,-1.053492844E-2,1.197422800E-2
5.474853542E0,-1.645666868E-3,-7.756263041E-4,3.835773468E-3,4.245347301E-3
5.484803542E0,1.098965909E-3,-1.424788297E-3,-2.899634242E-3,3.412568900E-3
5.494753542E0,-3.628704376E-3,8.789584818E-3,-6.537187099E-4,9.531612921E-3
5.504702542E0,4.970060214E-3,2.903823224E-3,-5.593446493E-3,8.026227727E-3
5.514652542E0,-3.035255384E-3,4.142142443E-3,-1.098165572E-2,1.212298979E-2
5.524602542E0,1.432752844E-3,7.564426402E-3,-6.641267538E-3,1.016758388E-2
5.534552542E0,-2.892311518E-3,-2.626484761E-3,-1.786850631E-2,1.829063711E-2
5.544501542E0,-5.135022502E-3,1.115115416E-2,-4.396521449E-3,1.304017240E-2
5.554451542E0,-6.938331218E-3,7.226397952E-3,-4.845002890E-3,1.112813194E-2
5.564401542E0,-5.798183552E-3,4.167771977E-3,-6.640682817E-3,9.751303709E-3
5.574351542E0,-9.414108563E-4,-1.990702841E-4,-8.886013627E-3,8.937959586E-3
5.584300542E0,-4.437557026E-4,-2.862588933E-3,-6.191031933E-3,6.835218425E-3
5.594250542E0,3.844612814E-4,4.009237059E-3,-3.796012402E-3,5.534573373E-3
5.604200542E0,-3.862839681E-3,5.581279260E-3,-2.026177168E-2,2.136847211E-2
5.614150542E0,4.460208134E-3,3.858385747E-3,-6.789786816E-3,8.993431057E-3
5.624099542E0,5.906190304E-3,6.833476480E-5,-4.992937446E-3,7.734156572E-3
5.634049542E0,6.510851788E-4,3.465985043E-3,-6.938306093E-3,7.783126343E-3
5.643999542E0,2.783002846E-3,-1.093584644E-3,-9.482429624E-3,9.942711088E-3
5.653949542E0,3.248484610E-3,-4.458654968E-3,-1.696686566E-2,1.784115430E-2
5.663898542E0,-5.829929821E-3,2.666015136E-3,-9.932080507E-3,1.182124958E-2
5.673848542E0,3.291619245E-3,7.599390924E-3,-9.781807065E-3,1.281675658E-2
5.683798542E0,3.422681387E-3,5.034461813E-3,-1.112900555E-2,1.268524017E-2
5.693748542E0,-6.385552352E-3,-1.336111617E-4,-1.771589398E-2,1.883204796E-2
5.703697542E0,-1.040578263E-3,-1.087417658E-3,-9.483599067E-3,9.602287829E-3
5.713647542E0,7.553700416E-3,3.439960366E-3,-1.098048627E-2,1.376454853E-2
5.723597542E0,3.378838690E-3,3.811539500E-4,-1.038173139E-2,1.092438446E-2
5.733547542E0,5.700377449E-3,-3.970122384E-3,5.335584283E-3,8.759259926E-3
5.743496542E0,3.780948969E-3,-3.549967962E-4,-1.008235395E-2,1.077383214E-2
5.753446542E0,1.822346428E-3,7.577968645E-4,-1.008235395E-2,1.027370740E-2
5.763396542E0,1.845949993E-3,1.071876399E-2,-4.543871284E-3,1.178754423E-2
5.773346542E0,-5.235816166E-4,3.894599655E-3,-1.053200483E-2,1.124122636E-2
5.783295542E0,-5.239573459E-3,3.765060988E-3,-1.577111006E-2,1.703985700E-2
5.793245542E0,3.399128071E-3,1.615204245E-2,-7.987296581E-3,1.833683325E-2
5.803195542E0,-2.640842416E-3,-1.257448294E-3,-9.035702348E-3,9.497322875E-3
5.813145542E0,3.355936334E-4,2.829785140E-3,-1.038290083E-2,1.076684433E-2
5.823094542E0,-2.580200394E-3,6.537292167E-3,-7.239437699E-3,1.008975129E-2
5.833044542E0,-3.013782855E-3,1.019776108E-2,-7.838192582E-3,1.321039292E-2
5.842994542E0,-2.584183810E-3,1.205184465E-2,-9.634457231E-3,1.564441534E-2
5.852944542E0,1.033458821E-3,5.833093256E-3,5.035037398E-3,7.774613539E-3
5.862894542E0,2.538863320E-3,7.257136947E-3,-1.861519575E-2,2.014044132E-2
5.872843542E0,-5.150848813E-3,1.385838532E-2,-6.040758491E-3,1.597112552E-2
5.882793542E0,-1.916596235E-3,4.748793351E-3,-1.142896771E-2,1.252380463E-2
5.892743542E0,5.752737438E-3,-5.284279534E-3,-9.183636904E-3,1.205640017E-2
5.902693542E0,3.501630218E-3,7.038176993E-3,-1.142838299E-2,1.387102330E-2
5.912642542E0,4.420748565E-3,4.690645533E-3,-1.367429852E-2,1.511726210E-2
5.922592542E0,4.566858150E-3,4.758235691E-3,-9.932080507E-3,1.192238330E-2
5.932542542E0,5.946385344E-3,-5.611216547E-3,-1.921161175E-2,2.087896731E-2
5.942492542E0,-2.062034304E-3,-3.015237807E-3,-1.112783611E-2,1.171206135E-2
5.952441542E0,3.867736724E-3,1.227981297E-2,-8.284335136E-3,1.530958531E-2
5.962391542E0,-1.449355739E-4,5.796326604E-4,-3.643984795E-3,3.692642079E-3
5.972341542E0,7.261682244E-3,5.549562683E-3,-7.386787534E-3,1.175135333E-2
5.982291542E0,-2.500678261E-3,4.229425841E-3,-8.584297299E-3,9.890985534E-3
5.992240542E0,2.926705023E-3,-2.835310302E-3,-9.481260180E-3,1.031982952E-2
6.002190542E0,2.495233042E-3,4.425104284E-3,-4.542117119E-3,6.814584637E-3
6.012140542E0,-4.926674331E-3,1.660277599E-2,-6.039589047E-3,1.834123568E-2
6.022090542E0,-4.202183755E-4,1.843110667E-2,5.186480284E-3,1.915154966E-2
6.032039542E0,-7.451424391E-3,8.881929712E-3,-1.636811078E-2,2.005810189E-2
6.041989542E0,-1.912916601E-3,2.043556189E-3,-1.756562054E-2,1.778725377E-2
6.051939542E0,1.901674415E-3,-1.924599612E-3,-1.127810955E-2,1.159811210E-2
6.061889542E0,1.034824923E-2,-2.815740402E-3,-1.262589276E-2,1.656586322E-2
6.071838542E0,7.993966062E-4,4.537352552E-3,-3.045229912E-3,5.522683073E-3
6.081788542E0,-7.117066439E-4,-8.895291514E-3,-1.352285564E-2,1.620186292E-2
6.091738542E0,2.917070822E-3,-9.065472898E-3,-6.637174487E-3,1.160793635E-2
6.101688542E0,-2.592691965E-3,-2.419274056E-3,-9.031024575E-3,9.702285476E-3
6.111638542E0,1.047832694E-2,8.775133516E-3,-1.112666667E-2,1.762387627E-2
6.121588583E0,1.003387688E-2,5.821958422E-3,-1.007884562E-2,1.536740102E-2
6.131538583E0,2.414612272E-3,7.884038407E-3,-7.234759927E-3,1.096951071E-2
6.141488583E0,-2.891315664E-3,1.391947959E-3,-9.480090737E-3,1.000846371E-2
6.151438583E0,-3.551322415E-3,3.890652785E-3,-1.187452555E-2,1.299051296E-2
6.161387583E0,4.001551168E-4,1.272317581E-2,-9.329232574E-3,1.578207550E-2
6.171337583E0,4.331660753E-3,6.003626387E-3,-4.688882232E-3,8.763129079E-3
6.181287583E0,-8.074015814E-3,1.525840518E-2,1.597459316E-3,1.733668181E-2
6.191237583E0,7.921223044E-3,7.017136153E-3,-1.097639322E-2,1.524687452E-2
6.201186583E0,-3.210187631E-3,3.561678382E-3,-2.742928863E-3,5.523994594E-3
6.211136583E0,-1.780682732E-4,5.132756706E-3,-1.666397989E-2,1.743746327E-2
6.221086583E0,6.441500613E-3,1.181320287E-4,-9.029270411E-3,1.109209671E-2
6.231036583E0,3.861313923E-3,8.682612749E-4,-5.586429834E-3,6.846299814E-3
6.240985583E0,-2.829686925E-3,1.014772856E-3,-4.688297510E-3,5.569293096E-3
6.250935583E0,6.563460741E-3,-7.509579062E-3,-1.037588418E-2,1.439207306E-2
6.260885583E0,3.778066474E-3,2.586223483E-3,-1.606405556E-2,1.670377859E-2
6.270835583E0,6.491736418E-3,1.990693705E-3,-1.307145059E-2,1.472984466E-2
6.280784583E0,-6.766256341E-4,3.972175762E-3,-9.178959131E-3,1.002443481E-2
6.290734583E0,1.123502973E-2,9.795854087E-3,-7.083317041E-3,1.650327333E-2
6.300684583E0,5.275200361E-3,1.843334734E-4,-7.233005762E-3,8.954221911E-3
6.310634583E0,2.660151932E-3,3.739970494E-3,-1.920868814E-2,1.974936677E-2
6.320583583E0,-2.394900760E-3,1.970397471E-3,-1.022678018E-2,1.068667622E-2
6.330533583E0,1.008683529E-3,-1.024884428E-4,-1.157456338E-2,1.161888393E-2
6.340483583E0,8.735966308E-3,8.166367561E-3,-1.246041656E-3,1.202328101E-2
6.350433583E0,3.838292796E-3,1.373932596E-2,-2.593240142E-3,1.449918838E-2
6.360382583E0,7.342974530E-3,7.186040743E-3,-1.711304605E-2,1.996033070E-2
6.370332583E0,1.654979016E-3,6.622200133E-4,-7.533552647E-3,7.741570020E-3
6.380282583E0,2.336931098E-3,7.329804590E-3,-1.292234659E-2,1.503909318E-2
6.390232583E0,-3.242783574E-4,9.249237638E-3,-1.127635539E-2,1.458800000E-2
6.400182583E0,6.583941984E-3,-2.322532330E-3,-1.352110147E-2,1.521718218E-2
6.410131583E0,8.159385163E-3,6.628271188E-3,-1.426954508E-2,1.772369775E-2
6.420081583E0,1.412365248E-3,6.206568168E-4,-1.022794962E-2,1.034364268E-2
6.430031583E0,1.434047911E-3,-1.659172566E-3,-1.994485259E-3,2.964341152E-3
6.439981583E0,6.152929100E-3,2.909750382E-3,-2.010798991E-2,2.122867028E-2
6.449930583E0,5.046466878E-4,6.724620054E-3,-1.367020547E-2,1.524302138E-2
6.459880583E0,4.992416678E-3,3.589057513E-3,-3.191410303E-3,6.927528985E-3
6.469830583E0,7.336748159E-4,6.980755508E-3,-8.878996968E-3,1.131838387E-2
6.479780583E0,-1.054810295E-3,9.835512370E-3,-5.885222554E-3,1.151024643E-2
6.489729583E0,-1.972775187E-3,8.907915561E-3,-4.688297510E-3,1.025782312E-2
6.499679583E0,2.903076333E-3,6.262141841E-3,-4.987674952E-3,8.515819048E-3
6.509629583E0,3.581401315E-3,4.482731335E-3,-4.238646626E-3,7.133543357E-3
6.519579583E0,-3.079207717E-3,2.238421503E-3,-9.028685689E-3,9.798429275E-3
6.529528583E0,1.140595344E-3,4.957479564E-3,-1.636343300E-2,1.713591261E-2
6.539478583E0,-7.458808785E-4,1.014916067E-2,-7.232421041E-3,1.248477932E-2
6.549428583E0,1.848341413E-3,3.291685483E-3,-6.034326553E-3,7.117910947E-3
6.559378583E0,-2.096592262E-4,1.145061840E-2,3.246958852E-3,1.190392207E-2
6.569328583E0,-9.885129193E-4,7.740863850E-3,-2.292108536E-3,8.133381368E-3
6.579277583E0,7.734226347E-3,-4.348862073E-3,6.989176869E-3,1.129510743E-2
6.589227583E0,1.078940109E-2,-2.063806741E-3,-9.177204967E-3,1.431403386E-2
6.599177583E0,7.064368408E-3,2.679920546E-4,-4.087203741E-3,8.165926473E-3
6.609127583E0,-2.845748495E-3,-7.083086350E-3,-1.306852698E-2,1.513455630E-2
6.619076583E0,5.258382764E-4,-2.625239943E-4,2.798477411E-3,2.859528031E-3
6.629026583E0,6.877138736E-3,5.598028335E-3,-6.331949830E-3,1.089617121E-2
6.638976583E0,6.699630059E-5,1.048756828E-2,-1.441514075E-2,1.782666148E-2
6.648926583E0,-4.084595335E-3,6.232078930E-3,-2.594058752E-2,2.698956850E-2
6.658875583E0,-2.210658649E-4,-3.789566760E-4,-5.133855343E-3,5.152567220E-3
6.668825583E0,7.873253035E-3,1.403286075E-3,-6.929535270E-3,1.058186109E-2
6.678775583E0,8.813668038E-3,9.142747507E-3,-5.582336783E-3,1.387202437E-2
6.688725583E0,3.472373583E-3,-8.777218871E-4,-1.471276402E-2,1.514243043E-2
6.698674583E0,5.403590142E-3,-2.089806295E-3,-5.432063341E-3,7.941875654E-3
6.708624583E0,-4.247440291E-3,-4.096184699E-3,-6.329610944E-3,8.653522567E-3
6.718574583E0,-2.042432427E-3,-1.953609567E-4,-1.539571881E-3,2.565146721E-3
6.728524583E0,8.581985822E-3,2.890274129E-3,-1.590910435E-2,1.830583968E-2
6.738473583E0,3.056024420E-3,-3.261442131E-3,1.070040464E-4,4.470765023E-3
6.748423583E0,3.183795218E-3,5.032403867E-3,-4.084864855E-3,7.221340704E-3
6.758373583E0,-2.051655496E-3,1.018296717E-2,-1.471217930E-2,1.800972878E-2
6.768323583E0,-2.335236319E-3,5.980696622E-4,-9.173696637E-3,9.485131838E-3
6.778273583E0,-2.868228299E-3,-3.137040334E-3,-7.911282778E-4,4.323614180E-3
6.788222583E0,1.635680920E-3,-4.379256174E-3,-8.425837755E-3,9.635770783E-3
6.798172583E0,5.701601710E-3,-1.509408471E-3,-1.710719883E-2,1.809538140E-2
6.808122583E0,8.858668758E-4,6.665286804E-3,-1.156930089E-2,1.338131277E-2
6.818072583E0,3.206311567E-3,6.080544682E-3,-1.091090441E-3,6.960167803E-3
6.828021583E0,4.774416033E-3,-1.079131057E-3,-1.037120640E-2,1.146828211E-2
6.837971583E0,4.289330109E-3,4.250944052E-3,-1.141902745E-2,1.291754876E-2
6.847921583E0,3.941594367E-3,3.594055055E-3,-2.737081647E-3,5.995416068E-3
6.857871583E0,2.455373760E-4,1.251441194E-4,-7.676809430E-3,7.681754531E-3
6.867820583E0,6.801691381E-3,9.118598050E-3,-3.186147809E-3,1.181369434E-2
6.877770583E0,-1.060493058E-3,7.461193353E-3,8.566170931E-4,7.584711242E-3
6.887720583E0,4.964523632E-3,-1.195310208E-3,-9.172527194E-3,1.049811967E-2
6.897670583E0,6.568958494E-3,3.070564801E-4,-1.081851840E-2,1.266040441E-2
6.907620583E0,1.331675499E-2,-1.943431757E-3,-1.381229281E-2,1.928450993E-2
6.917569583E0,9.721662970E-3,2.299047536E-3,-9.771282077E-3,1.397405825E-2
6.927519583E0,1.363241784E-2,5.924979053E-3,-7.076885104E-3,1.646300385E-2
6.937469583E0,-1.188126812E-4,1.225471334E-4,-1.687506437E-3,1.696116809E-3
6.947419583E0,4.318844844E-3,9.181551549E-3,-7.075715661E-3,1.237008738E-2
6.957368583E0,5.229196935E-3,3.779946263E-3,-8.871980309E-3,1.097016540E-2
6.967318583E0,6.018484253E-3,-6.378540262E-3,-8.422329426E-3,1.215909378E-2
6.977268583E0,-2.441116604E-3,6.312094422E-3,-2.883262038E-3,7.356275297E-3
6.987218583E0,9.993028594E-4,1.212062937E-2,-2.734158039E-3,1.246530717E-2
6.997167583E0,3.855366209E-3,4.804469808E-3,-1.800240755E-2,1.902717678E-2
7.007117583E0,1.061727825E-2,3.825102299E-3,-7.075130939E-3,1.331974035E-2
7.017067583E0,7.504809927E-4,2.515940408E-3,7.086825371E-4,2.719450090E-3
7.027017583E0,1.650467981E-3,-7.325407758E-3,-4.080771804E-3,8.546247240E-3
7.036967583E0,7.086277194E-4,-1.804836758E-3,-2.883846760E-3,3.475077136E-3
7.046916583E0,7.812601877E-3,3.964576665E-3,-1.186517000E-2,1.474913134E-2
7.056866583E0,4.485179856E-3,1.242437395E-3,-1.126583040E-2,1.218931596E-2
7.066816583E0,4.066820713E-3,-1.767919357E-3,-1.186458528E-2,1.266621307E-2
7.076766583E0,8.499686262E-3,1.262651403E-3,-1.081617951E-2,1.381407595E-2
7.086715583E0,6.069743321E-3,4.256149444E-3,-6.624895334E-3,9.942124032E-3
7.096665583E0,3.908872800E-3,6.759267091E-4,-5.427970290E-3,6.723022010E-3
7.106615583E0,1.281406347E-2,-1.968661579E-4,-8.421744704E-3,1.533508274E-2
7.116565583E0,6.696651634E-3,-6.924131163E-3,-1.396081209E-2,1.696151555E-2
7.126513792E0,5.424512210E-3,1.160377662E-3,-1.530859530E-2,1.628265639E-2
7.136463792E0,1.106617539E-2,6.732550340E-3,-1.036828279E-2,1.659182811E-2
7.146413792E0,1.965075592E-3,2.730565199E-3,-7.822989821E-3,8.515672500E-3
7.156363792E0,5.124239414E-3,1.069262054E-2,-6.026725173E-3,1.330080373E-2
7.166313792E0,1.040245246E-2,3.132805671E-4,-1.545711458E-2,1.863415018E-2
7.176262792E0,1.448487793E-3,2.656527115E-3,-1.530801058E-2,1.560418024E-2
7.186212792E0,-2.361398041E-3,5.221760008E-3,-6.176998615E-3,8.426048313E-3
7.196162792E0,6.817602203E-3,6.657824751E-3,4.151523113E-3,1.039430009E-2
7.206112792E0,4.898888636E-3,-6.260280325E-3,-6.775753498E-3,1.044514505E-2
7.216061792E0,1.016262069E-2,1.028688087E-2,-7.973263264E-3,1.651277398E-2
7.226011792E0,6.543331244E-3,7.502475609E-3,-3.332328200E-3,1.049793957E-2
7.235961792E0,9.469446978E-3,2.844805175E-3,-9.319877028E-3,1.358762122E-2
7.245911792E0,6.778873536E-3,1.966806916E-3,-9.319877028E-3,1.169108907E-2
7.255860792E0,6.477239435E-3,-2.608452039E-4,-3.781979084E-3,7.505067402E-3
7.265810792E0,1.009674358E-2,-1.251443478E-3,-1.021917880E-2,1.442019268E-2
7.275760792E0,2.252776874E-3,3.283759765E-4,-4.979488850E-3,5.475230007E-3
7.285710792E0,2.173382649E-4,1.183956331E-2,-2.788244784E-2,3.029279440E-2
7.295660792E0,5.365368538E-4,6.933769933E-3,-1.066824496E-2,1.273485327E-2
7.305609792E0,-1.948191756E-3,9.371697977E-3,-1.201544344E-2,1.536213056E-2
7.315559792E0,1.239383139E-2,3.411057761E-3,-1.111672640E-2,1.699482207E-2
7.325509792E0,1.272113842E-2,2.572057690E-3,-5.877621174E-3,1.424743044E-2
7.335459792E0,8.980934951E-3,-4.493014212E-4,-1.306267977E-2,1.585852033E-2
7.345408792E0,3.531850730E-3,-8.136060254E-3,-1.126641512E-2,1.433881291E-2
7.355358792E0,8.091194294E-3,3.416950658E-3,-1.246334016E-2,1.524722352E-2
7.365308792E0,4.999680016E-3,1.062521082E-2,-9.470150471E-3,1.508561087E-2
7.375258792E0,7.822272624E-3,-2.320136342E-3,-4.380733967E-3,9.260767340E-3
7.385208792E0,2.605898450E-3,9.203366688E-3,-1.755275667E-2,1.998979569E-2
7.395157792E0,1.713558524E-3,-2.098629652E-3,-1.894497871E-4,2.715956636E-3
7.405107792E0,7.593399812E-3,2.619879234E-3,-3.482601643E-3,8.755112913E-3
7.415057792E0,3.357398137E-4,1.909198137E-3,-5.128592849E-3,5.482720434E-3
7.425007792E0,-7.339443360E-4,-5.133953558E-3,-9.469565749E-3,1.079670454E-2
7.434956792E0,4.590347512E-3,6.288623333E-3,-1.530801058E-2,1.717420337E-2
7.444906792E0,6.515095588E-3,6.563588649E-3,-1.949871004E-2,2.158070572E-2
7.454856792E0,1.207829644E-2,1.086508371E-2,-1.575649202E-2,2.263188745E-2
7.464806792E0,1.984627219E-3,3.770202426E-3,-1.545711458E-2,1.603357610E-2
7.474755792E0,3.125482947E-3,2.797643726E-3,-1.201485872E-2,1.272604747E-2
7.484705792E0,1.125781788E-2,-3.969528526E-4,-1.560797274E-2,1.924850249E-2
7.494655792E0,8.866370637E-3,-1.115038900E-3,-1.486011386E-2,1.734009296E-2
7.504605792E0,5.166270845E-3,-1.198057942E-3,-1.291416049E-2,1.396070336E-2
7.514555792E0,3.809323953E-3,-1.693408471E-5,3.851560950E-3,5.417172464E-3
7.524504792E0,8.154906104E-3,-1.232759797E-3,-1.036886752E-2,1.324898501E-2
7.534454792E0,3.816372589E-3,-2.093531610E-3,-3.183808923E-3,5.392978175E-3
7.544404792E0,7.752640508E-3,2.896071095E-3,-6.327272058E-3,1.041753494E-2
7.554354792E0,-1.554765506E-3,9.695683974E-3,-1.650610507E-2,1.920612111E-2
7.564303792E0,-1.836267826E-3,1.062624094E-3,-1.920050204E-2,1.931735820E-2
7.574253792E0,1.780189374E-3,-2.585631909E-3,-8.721706867E-3,9.269451831E-3
7.584203792E0,8.106995481E-3,-2.322829259E-3,-1.590676546E-2,1.800400230E-2
7.594153792E0,1.355306930E-3,-1.442862132E-3,-9.373086691E-4,2.190263808E-3
7.604103792E0,5.630028136E-3,4.922764006E-3,-6.175829172E-3,9.699056048E-3
7.614052792E0,3.402805422E-3,-4.126380086E-3,-7.373923659E-3,9.109382388E-3
7.624002792E0,7.879977333E-3,-1.319040488E-3,-1.919933259E-2,2.079539090E-2
7.633952792E0,6.568981335E-6,-6.444156985E-4,-7.373338938E-3,7.401448631E-3
7.643902792E0,6.060410617E-4,-1.170840980E-3,-7.673301101E-3,7.785737226E-3
7.653851792E0,3.097653855E-4,3.939922429E-3,-1.156520784E-2,1.222182375E-2
7.663801792E0,-9.437177656E-4,6.564803773E-3,-1.201368928E-2,1.372282704E-2
7.673751792E0,5.028089262E-3,2.190807809E-3,-1.515715241E-2,1.611895126E-2
7.683701792E0,2.280870918E-3,6.694253362E-3,-1.894497871E-4,7.074693735E-3
7.693651792E0,6.986851688E-3,4.592663557E-3,5.050240159E-3,9.767987547E-3
7.703600792E0,-1.110774544E-3,4.755533638E-3,1.105123758E-4,4.884785896E-3
7.713550792E0,-3.188377060E-4,-1.930460532E-3,-7.523612380E-3,7.773871532E-3
7.723500792E0,1.552568232E-3,-3.509635879E-3,-5.727347732E-3,6.894238475E-3
7.733450792E0,-6.063242862E-3,-1.044726132E-3,-4.529253244E-3,7.639928118E-3
7.743399792E0,-1.799106030E-3,-4.095554296E-3,-1.246334016E-2,1.324179729E-2
7.753349792E0,4.106481280E-3,-1.953129913E-4,-1.725279450E-2,1.773584658E-2
7.763299792E0,4.935251009E-3,-1.131753714E-3,-1.680314362E-2,1.754945026E-2
7.773249792E0,7.625253433E-3,5.758648608E-3,-9.318707585E-3,1.334709087E-2
7.783199792E0,6.795766507E-3,2.114433122E-3,-1.066590607E-2,1.282243433E-2
7.793148792E0,-1.477061491E-3,5.570614943E-5,-9.767773747E-3,9.878978581E-3
7.803098792E0,4.819065006E-3,1.009656771E-2,-1.380995393E-2,1.777298215E-2
7.813048792E0,1.284533693E-2,6.139375437E-3,-1.186400056E-2,1.853238034E-2
7.822998792E0,2.578836805E-3,7.678718911E-4,-9.367239475E-4,2.849118857E-3
7.832947792E0,5.440729097E-3,6.141616108E-3,-9.468981028E-3,1.252926906E-2
7.842897792E0,1.913441936E-3,1.466567110E-2,-1.261244416E-2,1.943751313E-2
7.852847792E0,1.378029758E-2,-8.071384567E-3,-1.650493562E-2,2.296642659E-2
7.862797792E0,7.948193327E-3,1.922315543E-3,-1.635524690E-2,1.828560022E-2
7.872747792E0,4.883155972E-4,8.886107274E-3,-1.081676424E-2,1.400727465E-2
7.882696792E0,3.669452160E-3,3.150431828E-3,-9.619254470E-3,1.076662233E-2
7.892646792E0,2.197497846E-3,-1.384807960E-4,-2.204400301E-2,2.215369591E-2
7.902596792E0,-3.546879902E-3,-3.593152848E-3,-7.824159265E-3,9.311743801E-3
7.912546792E0,-1.178976833E-3,2.308994655E-3,-1.088166833E-3,2.811680947E-3
7.922495792E0,8.397286898E-4,-9.190212737E-3,-1.500863314E-2,1.761885987E-2
7.932445792E0,7.413406069E-3,-1.914803241E-4,-7.972678542E-3,1.088847360E-2
7.942395792E0,1.300859302E-2,-3.740961780E-4,-5.877621174E-3,1.427970136E-2
7.952345792E0,2.947499184E-3,-9.079823701E-3,-1.006949008E-2,1.387535874E-2
7.962295792E0,7.435483877E-3,3.801192669E-3,-8.122951984E-3,1.164979979E-2
7.972244792E0,4.007352702E-3,3.345541537E-3,-8.572018147E-3,1.003648439E-2
7.982194792E0,4.445135565E-3,-4.903383683E-3,-8.422329426E-3,1.071158414E-2
7.992144792E0,2.181166755E-3,7.142387624E-3,-3.333497643E-3,8.178226942E-3
8.002094792E0,-1.744302087E-3,1.091091126E-2,-5.878205895E-3,1.251574524E-2
8.012043792E0,2.569586327E-3,2.879694323E-3,-1.156696200E-2,1.219385186E-2
8.021993792E0,6.031603944E-3,2.331024497E-3,-6.776922941E-3,9.366995564E-3
8.031943792E0,6.462196559E-3,-4.137487512E-3,-1.845322788E-2,1.998500454E-2
8.041893792E0,1.187227346E-2,1.835162337E-3,-1.201661289E-2,1.699169453E-2
8.051843792E0,1.808900116E-3,1.056968740E-3,-1.770478427E-2,1.782831144E-2
8.061792792E0,4.614047008E-4,-1.054111370E-3,-4.894119501E-4,1.250427581E-3
8.071742792E0,4.505603998E-3,-4.851882504E-3,-2.285676599E-3,7.004680488E-3
8.081692792E0,4.611466010E-3,-9.148414282E-3,-6.328441501E-3,1.204193815E-2
8.091642792E0,1.106852798E-2,-4.626054356E-3,-1.081851840E-2,1.615404070E-2
8.101592792E0,2.128994060E-2,2.561436770E-3,2.954013348E-3,2.164598632E-2
8.111541792E0,4.614768773E-3,8.782015415E-5,9.840279222E-3,1.086898792E-2
8.121491917E0,6.085772915E-3,5.956818969E-3,8.583712578E-4,8.559037645E-3
8.131441917E0,7.636066214E-3,-3.614515741E-4,-1.740365267E-2,1.900861070E-2
8.141391917E0,4.737761300E-3,1.060591729E-2,-1.545769930E-2,1.933577853E-2
8.151340917E0,2.104138825E-3,9.053392459E-3,-8.273225427E-3,1.244337471E-2
8.161290917E0,4.788088468E-3,3.760668724E-3,-1.396198153E-2,1.523172179E-2
8.171240917E0,8.463707613E-3,5.143699679E-3,-1.537817717E-3,1.002281778E-2
8.181190917E0,8.643144043E-5,5.738151376E-4,-1.201661289E-2,1.203061592E-2
8.191140917E0,8.163651803E-3,-3.504775381E-3,-8.724045753E-3,1.245141099E-2
8.201089917E0,9.368244465E-3,-1.998870671E-3,-1.830412388E-2,2.065914905E-2
8.211039917E0,3.847294310E-3,-1.479416366E-3,-3.334667087E-3,5.301919546E-3
8.220989917E0,2.994889040E-3,9.891458347E-3,-4.232214689E-3,1.116789818E-2
8.230939917E0,1.148947269E-2,3.056497222E-3,-4.081941247E-3,1.257029842E-2
8.240889917E0,8.303457359E-3,-1.080842282E-2,-9.619839191E-3,1.668264709E-2
8.250838917E0,5.657930318E-3,3.717273704E-3,-7.374508381E-3,1.001067796E-2
8.260788917E0,3.326065284E-3,7.277392067E-3,-2.134818435E-3,8.281340189E-3
8.270738917E0,2.378172241E-4,-2.841061587E-4,-8.420575261E-3,8.428722387E-3
8.280688917E0,9.597441615E-3,-1.890763419E-3,-1.291123688E-2,1.619833046E-2
8.290637917E0,7.112808935E-3,-5.552061454E-3,-3.031196594E-3,9.518696872E-3
8.300587917E0,6.641601012E-3,-1.867262637E-3,-1.036535919E-2,1.245143385E-2
8.310537917E0,3.772623539E-3,-5.193583737E-4,-5.125669241E-3,6.385523209E-3
8.320487917E0,6.886909981E-3,-3.011852817E-3,-1.186166167E-2,1.404278477E-2
8.330437917E0,2.452623742E-3,-5.220165728E-3,-9.017575979E-3,1.070430614E-2
8.340386917E0,8.396035228E-3,2.221631315E-3,-7.221896052E-3,1.129534576E-2
8.350336917E0,-2.587790354E-3,7.005466847E-5,-2.548333526E-2,2.561448696E-2
8.360286917E0,-8.764747856E-4,-1.754324581E-4,-1.470516264E-2,1.473230440E-2
8.370236917E0,5.981619386E-3,3.589050660E-3,-7.669208050E-3,1.036715039E-2
8.380186917E0,2.859142274E-3,1.341024649E-3,-4.376056194E-3,5.396564598E-3
8.390135917E0,2.855944578E-3,-2.382324678E-3,-1.949520171E-2,1.984678261E-2
8.400085917E0,6.697665760E-4,5.398144922E-3,-1.395671904E-2,1.497927109E-2
8.410035917E0,1.571110301E-3,7.153568140E-3,-6.771660447E-3,9.974833829E-3
8.419985917E0,4.387238994E-4,4.586697570E-3,-6.172320843E-3,7.702455313E-3
8.429934917E0,-1.474096770E-3,2.341663688E-3,-1.096294463E-2,1.130674600E-2
8.439884917E0,4.385603601E-3,-6.599462230E-3,-6.173490286E-3,1.004481971E-2
8.449834917E0,-2.520127106E-3,-2.328653634E-3,-6.173490286E-3,7.062977466E-3
8.459784917E0,8.142622383E-3,1.782676724E-3,-8.269132376E-3,1.174132811E-2
8.469734917E0,8.023933042E-4,9.106978993E-3,-1.725162506E-2,1.952433017E-2
8.479683917E0,8.175640879E-4,6.772414190E-3,-2.129380524E-2,2.235978861E-2
8.489633917E0,7.889337447E-3,1.672744502E-3,-9.319877028E-3,1.232476480E-2
8.499583917E0,-3.561004582E-3,-1.933004984E-3,-7.224234939E-3,8.282924142E-3
8.509533917E0,-9.911418823E-3,2.878036089E-3,-9.469565749E-3,1.400685512E-2
8.519483917E0,2.413963596E-3,-1.228689586E-3,-3.781979084E-3,4.651909730E-3
8.529432917E0,-7.445195736E-4,-1.046674442E-4,-1.171548128E-2,1.173958118E-2
8.539382917E0,1.655904064E-4,1.443124800E-3,-1.396022737E-2,1.403559680E-2
8.549332917E0,6.376374965E-3,-3.792794149E-3,-8.422329426E-3,1.122404019E-2
8.559282917E0,7.965479158E-3,-5.660506748E-3,5.049655437E-3,1.099950976E-2
8.569232917E0,-8.178564487E-4,-4.631102148E-3,-9.619839191E-3,1.070781501E-2
8.579181917E0,2.677312139E-3,8.219403634E-4,-5.727932453E-3,6.375954551E-3
8.589131917E0,6.655762237E-3,1.124501796E-3,-1.455956697E-2,1.604819821E-2
8.599081917E0,3.123541488E-3,1.344724840E-3,-1.890053988E-2,1.920404134E-2
8.609031917E0,8.408839717E-3,3.487338801E-4,-1.081734896E-2,1.370566449E-2
8.618980917E0,1.000591531E-2,-3.725478079E-3,-1.381170809E-2,1.745739982E-2
8.628930917E0,-1.490245136E-3,9.432538713E-3,-1.156637728E-2,1.499915666E-2
8.638880917E0,4.846405308E-3,1.822408098E-3,-4.894119501E-4,5.200801836E-3
8.648830917E0,1.150864973E-2,-1.511315668E-3,-3.334082365E-3,1.207680417E-2
8.658780917E0,-4.455518941E-3,1.420909949E-3,-8.573772311E-3,9.766279013E-3
8.668729917E0,1.759609915E-3,9.286406287E-4,-1.321353793E-2,1.336249173E-2
8.678679917E0,-3.256145376E-3,4.265584932E-3,-8.124121428E-3,9.736480190E-3
8.688629917E0,-3.740591761E-3,-5.185071013E-3,-1.785447299E-2,1.896468281E-2
8.698579917E0,7.462890416E-3,1.970383767E-3,-2.189723790E-2,2.321779863E-2
8.708529917E0,5.410917434E-3,3.853490988E-3,-1.590968907E-2,1.724081282E-2
8.718478917E0,-9.657042101E-4,-9.010997862E-3,-8.425253034E-3,1.237398706E-2
8.728428917E0,-2.153808181E-3,-2.510273634E-3,-1.725688756E-2,1.757101396E-2
8.738378917E0,-7.565595845E-3,1.593551275E-3,-4.833308458E-3,9.118032508E-3
8.748328917E0,1.054636706E-3,3.162843457E-3,-1.246743321E-2,1.290553092E-2
8.758278917E0,1.046918838E-3,-1.155032942E-3,-3.162817419E-2,3.166656821E-2
8.768227917E0,5.776861771E-3,1.807317256E-3,-4.085449576E-3,7.302699900E-3
8.778177917E0,2.803452113E-3,9.976359461E-3,6.093968153E-3,1.202179436E-2
8.788127917E0,1.534642861E-4,3.606909793E-4,-2.279595494E-2,2.279932479E-2
8.798077917E0,4.884610923E-3,3.180944701E-3,1.603306532E-3,6.045529332E-3
8.808027917E0,8.736071375E-3,-2.443441786E-3,-3.420621157E-4,9.077794739E-3
8.817976917E0,-6.476522237E-4,-4.950789528E-3,-1.605996251E-2,1.681820936E-2
8.827926917E0,-1.647382204E-3,-1.240413025E-2,9.087157845E-3,1.546456443E-2
8.837876917E0,9.680031252E-3,-6.769750966E-5,-2.444253087E-2,2.628963490E-2
8.847826917E0,-4.525881959E-5,-2.843647152E-3,9.836770892E-3,1.023965034E-2
8.857776917E0,8.454708382E-3,2.868415592E-3,-3.461960971E-2,3.575230452E-2
8.867725917E0,3.276912128E-2,7.728168997E-4,-8.640196681E-2,9.241056446E-2
8.877675917E0,1.023266668E-1,3.165158817E-2,-6.137120605E-2,1.234463231E-1
8.887625917E0,1.452307012E0,6.531861017E-1,2.209417212E-1,1.607688709E0
8.897575917E0,3.929748164E0,1.369373028E0,1.575807077E-1,4.164484938E0
8.907525917E0,1.850794905E0,1.022165582E0,6.296153176E-1,2.206055236E0
8.917474917E0,-7.819799434E-1,3.482757188E-2,9.849260545E-1,1.258087805E0
8.927424917E0,-1.229107827E0,8.351553997E-1,-1.489544858E0,2.104028155E0
8.937374917E0,-1.125474846E0,7.355256423E-1,-4.415986830E-1,1.415168187E0
8.947324917E0,-1.349229955E0,-8.787251231E-1,3.576174635E-1,1.649384602E0
8.957273917E0,-5.393313843E-1,-2.003846213E0,5.380958676E-1,2.143787571E0
8.967223917E0,-1.233810559E-1,-2.098103914E0,9.498854452E-1,2.306413943E0
8.977173917E0,-5.257196510E-1,-7.945804008E-1,1.924394685E-1,9.719938857E-1
8.987123917E0,-9.186148283E-1,5.775514171E-1,-1.490309089E-1,1.095275789E0
8.997073917E0,-7.717725322E-1,1.009068477E0,2.540381312E-2,1.270628737E0
9.007022917E0,-1.850351393E-1,1.109577875E0,9.085082084E-1,1.445955818E0
9.016972917E0,5.810180850E-1,1.300163337E0,2.938122370E0,3.265052799E0
9.026922917E0,1.541454977E0,1.170951566E0,3.994630038E0,4.438950344E0
9.036872917E0,1.651921452E0,-1.060023270E-1,4.681595432E0,4.965623502E0
9.046822917E0,6.137124990E-1,-2.129076030E0,4.695102500E0,5.191685204E0
9.056771917E0,-7.735897006E-1,-2.553160110E0,4.095255942E0,4.887554480E0
9.066721917E0,-1.477686266E0,-6.862511560E-1,3.395118526E0,3.765810292E0
9.076671917E0,-2.163401087E0,8.078471484E-1,3.150117851E0,3.905913946E0
9.086621917E0,-1.023364919E0,3.362994654E-1,3.836342987E0,3.984708346E0
9.096571917E0,5.119339265E-1,-2.993145838E-1,4.611687291E0,4.649658615E0
9.106520917E0,1.475173864E0,-3.609429943E-1,4.030475809E0,4.307104947E0
9.116470917E0,1.455383670E0,-2.867245053E-1,5.161970510E0,5.370874427E0
9.126420708E0,7.165639991E-1,8.691602477E-1,6.286587716E0,6.386711878E0
9.136370708E0,2.085273149E-1,1.840547805E0,6.793978100E0,7.041962673E0
9.146320708E0,-3.777796498E-1,1.272784773E0,6.204921994E0,6.345372762E0
9.156269708E0,-5.105219701E-1,6.322464184E-1,4.874955252E0,4.942221861E0
9.166219708E0,-3.114533670E-1,2.941210869E-1,4.109125537E0,4.131394812E0
9.176169708E0,-5.006663784E-2,-1.031720737E-1,3.372558798E0,3.374507963E0
9.186119708E0,-4.015250098E-1,1.802936321E-1,3.709630900E0,3.735651154E0
9.196069708E0,-4.101977462E-1,7.346798426E-1,4.578636489E0,4.655311886E0
9.206018708E0,5.213093155E-1,4.738112864E-1,7.939081610E0,7.970274610E0
9.215968708E0,-3.907544386E-2,1.933720994E0,3.845347699E0,4.304358570E0
9.225918708E0,-4.921901450E-1,4.101821780E-2,4.179734175E0,4.208813539E0
9.235868708E0,-7.816928452E-1,-4.205358428E-1,4.728506473E0,4.811098374E0
9.245818708E0,-2.583114957E-1,4.031868616E-1,5.665891741E0,5.686089490E0
9.255767708E0,-9.287764851E-1,1.200837124E0,7.614912559E0,7.764761995E0
9.265717708E0,-2.937251427E0,1.718216891E0,6.917706352E-1,3.472500805E0
9.275667708E0,-1.897260827E0,-2.804069688E0,3.694256816E0,5.010981828E0
9.285617708E0,-1.202578717E0,-4.447248384E0,3.165629345E0,5.589760541E0
9.295567708E0,-7.826480609E-1,-4.526610303E0,-8.926300943E-1,4.679693078E0
9.305517708E0,-4.132585444E-1,-2.133808036E0,-2.710058740E0,3.473951314E0
9.315466708E0,-9.961382367E-1,-1.448643585E0,-4.176631057E-1,1.807014691E0
9.325416708E0,-1.411767096E0,-1.030393419E0,-5.395600104E-1,1.829186140E0
9.335366708E0,-6.940745844E-1,-1.073544116E0,-6.718544340E-1,1.444169269E0
9.345316708E0,-2.533124918E-1,-2.328216847E0,2.584481013E-1,2.356174086E0
9.355266708E0,7.829114780E-2,-2.153016724E0,7.681908202E-1,2.287297019E0
9.365215708E0,-7.114908086E-1,-2.036739578E0,4.459361476E-1,2.203040247E0
9.375165708E0,-1.797192748E0,-1.616655725E-1,-9.564349115E-2,1.806982348E0
9.385115708E0,-1.609256951E0,-2.133948954E0,-3.464065969E-1,2.695077662E0
9.395065708E0,-3.349599414E-1,-3.172611505E0,-5.923960358E-1,3.244779651E0
9.405015708E0,1.800892720E-1,-3.243889064E0,-1.534376045E0,3.592987371E0
9.414964708E0,-6.907330468E-2,-3.279634847E0,-2.133188816E0,3.912961842E0
9.424914708E0,-3.618194188E-1,-2.928624737E0,-2.554269619E0,3.902825826E0
9.434864708E0,-6.604112868E-1,-2.820247765E0,-2.597216249E0,3.890433493E0
9.444814708E0,-6.269517647E-1,-2.648436103E0,-2.494898161E0,3.692126642E0
9.454764708E0,-3.846701914E-1,-2.670083081E0,-2.279132395E0,3.531537808E0
9.464713708E0,-3.871668063E-1,-2.614291288E0,-2.223530344E0,3.453766678E0
9.474663708E0,-6.484012520E-1,-3.007709498E0,-2.341028096E0,3.866154828E0
9.484613708E0,-7.548195536E-1,-2.940816767E0,-2.744784476E0,4.092920429E0
9.494563708E0,-8.312100640E-1,-2.743052239E0,-2.887007180E0,4.068176030E0
9.504513708E0,-6.033274055E-1,-3.234604270E0,-2.761575926E0,4.295692067E0
9.514462708E0,2.295382977E-2,-3.439051580E0,-2.900264864E0,4.498793053E0
9.524412708E0,-4.387940660E-2,-3.155363973E0,-3.071110565E0,4.403404059E0
9.534362708E0,-7.030016747E-1,-2.899820184E0,-3.069765706E0,4.280961334E0
9.544312708E0,-9.988671322E-1,-2.613577927E0,-3.049062177E0,4.138273226E0
9.554262708E0,-1.955877556E-1,-3.033798020E0,-2.862494482E0,4.175650807E0
9.564212708E0,5.875305676E-1,-3.275131322E0,-2.356585783E0,4.077397932E0
9.574161708E0,5.788734725E-1,-2.976937941E0,-1.539730048E0,3.401179593E0
9.584111708E0,3.675713249E-1,-1.562952558E0,-1.185369192E0,1.995752865E0
9.594061708E0,1.576092128E-1,-2.246023121E0,-4.404067281E-1,2.294214159E0
9.604011708E0,1.974568181E-1,-1.848063962E0,-1.980484101E-1,1.869104806E0
9.613961708E0,4.122009292E-1,-2.604811197E0,-7.457261100E-2,2.638278236E0
9.623910708E0,1.404007110E-1,-2.746059462E0,5.061569139E-2,2.750112157E0
9.633860708E0,-2.729667377E-1,-7.741912329E-1,-2.050440189E0,2.208662010E0
9.643810708E0,-8.685290408E-1,-1.161629496E0,-2.219914280E0,2.651743802E0
9.653760708E0,-2.822991863E-1,-2.414763824E0,-1.592661091E0,2.906431921E0
9.663710708E0,3.855849883E-1,-1.405011077E0,-1.598207321E0,2.162636944E0
9.673659708E0,5.525770819E-1,-1.516653720E0,-7.994257692E-1,1.801294395E0
9.683609708E0,5.967310153E-1,-2.505216157E0,2.474237609E-1,2.587163392E0
9.693559708E0,3.418345128E-1,-2.306051806E0,1.463618304E0,2.752617719E0
9.703509708E0,3.491628282E-1,-1.682296568E-1,5.112286426E-1,6.415377020E-1
9.713459708E0,1.720616296E-1,-7.222556788E-1,1.900374323E-1,7.664024371E-1
9.723409708E0,-8.710801810E-2,-9.707412940E-1,1.578951417E-1,9.873486428E-1
9.733358708E0,-2.265117788E-1,-1.098200655E-1,2.540600583E-2,2.530088889E-1
9.743308708E0,-1.471584843E-1,1.822717452E-1,-7.968000770E-2,2.474419371E-1
9.753258708E0,1.649213022E-1,-4.492339772E-1,-1.510347497E-1,5.018183913E-1
9.763208708E0,5.408101451E-1,-8.839645207E-1,-6.187216625E-2,1.038121887E0
9.773158708E0,6.683145297E-1,-7.097952622E-1,-2.860323411E-1,1.016005967E0
9.783107708E0,8.654427342E-1,-5.175095755E-1,-1.544743597E0,1.844733062E0
9.793057708E0,5.970353629E-1,-2.908405066E-1,-1.954012586E0,2.063784052E0
9.803007708E0,2.095057368E-3,-3.003223515E-1,-1.612083203E0,1.639820160E0
9.812957708E0,1.430129546E-1,-2.384903848E-2,-1.333459284E0,1.341318435E0
9.822907708E0,3.915136264E-1,8.263811409E-2,1.302402967E-1,4.208022249E-1
9.832857708E0,8.310758704E-1,4.744220281E-1,1.247856193E0,1.572548391E0
9.842806708E0,1.487485323E0,5.806945878E-1,1.518013343E0,2.203221119E0
9.852756708E0,1.625790392E0,3.629314131E-1,1.485000841E0,2.231622976E0
9.862706708E0,1.206299885E0,4.633479863E-1,1.113933100E0,1.706076704E0
9.872656708E0,6.581618629E-1,7.028242117E-1,5.447160121E-1,1.106279551E0
9.882606708E0,5.080142820E-1,3.803894448E-1,1.118279994E-1,6.444223319E-1
9.892555708E0,7.133511002E-1,2.093613106E-1,-2.512513483E-1,7.847478516E-1
9.902505708E0,7.281756923E-1,7.183538318E-2,-3.150490757E-1,7.966530494E-1
9.912455708E0,6.837482554E-1,-1.392058325E-1,-2.776065034E-1,7.509695808E-1
9.922405708E0,6.737328520E-1,-3.333409935E-1,-2.596871263E-1,7.952795593E-1
9.932355708E0,1.073663984E0,-4.112890559E-1,-4.109072328E-2,1.150478807E0
9.942304708E0,1.305741727E0,-4.084853160E-1,1.366810048E-1,1.374955784E0
9.952254708E0,1.103500571E0,-2.854780251E-1,1.691576830E-1,1.152313124E0
9.962204708E0,9.892740440E-1,-2.191378552E-1,1.944784657E-1,1.031749198E0
9.972154708E0,9.507306603E-1,-2.327069038E-1,3.421889637E-1,1.036886965E0
9.982104708E0,8.684128274E-1,-9.499035716E-2,2.849675997E-1,9.188963705E-1
9.992054708E0,7.613519168E-1,-1.012720209E-1,2.340003079E-1,8.029127646E-1
1.000200371E1,8.855401991E-1,-6.709247267E-1,4.973483759E-1,1.217241488E0
1.001195371E1,9.781543940E-1,-8.344374347E-1,1.849017863E-1,1.298945927E0
1.002190371E1,1.007737651E0,2.287588638E-1,-6.624953806E-1,1.227503939E0
1.003185371E1,1.107113712E0,-7.750817639E-1,-5.535108823E-1,1.460420080E0
1.004180371E1,1.146821715E0,-9.116060632E-1,-4.976407367E-1,1.547214259E0
1.005175371E1,1.056964921E0,-7.663945556E-1,-3.282176632E-1,1.346202917E0
1.006170271E1,1.006992715E0,-1.042019438E0,-9.243804753E-2,1.452027420E0
1.007165271E1,9.461634001E-1,-1.092061079E0,-5.819382906E-2,1.446101345E0
1.008160271E1,9.549773468E-1,-1.019834517E0,-6.160392523E-2,1.398513217E0
1.009155271E1,9.364026430E-1,-1.529383108E0,2.034012437E-1,1.804781058E0
1.010150271E1,1.075231476E0,-8.220471847E-1,-1.867238152E-1,1.366290630E0
1.011145171E1,1.149746638E0,-1.348183742E0,1.829511917E-1,1.781288262E0
1.012140192E1,1.161817630E0,-1.444002065E0,3.270242465E-1,1.881995491E0
1.013135192E1,1.002910628E0,-1.113273023E0,2.551456122E-1,1.519969024E0
1.014130192E1,7.469835538E-1,-1.247471884E0,2.619786866E-1,1.477431340E0
1.015125192E1,7.068561593E-1,-1.413739216E0,2.464145497E-1,1.599695074E0
1.016120192E1,8.335457343E-1,-1.486232995E0,-2.720942966E-1,1.725607810E0
1.017115092E1,7.545885886E-1,-1.944712590E0,-1.900087810E-1,2.094615557E0
1.018110092E1,1.036950340E0,-2.341635622E0,1.414055550E-1,2.564862360E0
1.019105092E1,8.869471854E-1,-2.896998317E0,6.672572800E-1,3.102338930E0
1.020100092E1,8.775536335E-1,-1.705476685E0,4.129630407E-1,1.961960646E0
1.021095092E1,6.776156956E-1,-1.793470264E0,2.967554768E-1,1.940041863E0
1.022089992E1,5.042780574E-1,-1.779103655E0,3.052585709E-1,1.874216895E0
1.023084992E1,4.108253717E-1,-1.499623119E0,5.434168339E-2,1.555827755E0
1.024079992E1,3.370282477E-1,-1.366944534E0,2.900328599E-2,1.408178465E0
1.025074992E1,4.079997048E-1,-1.422982494E0,-2.855336467E-1,1.507604856E0
1.026069992E1,4.816702366E-1,-1.519117736E0,-5.959411296E-1,1.701431968E0
1.027064992E1,3.957206981E-1,-1.928094803E0,-7.100040078E-1,2.092426852E0
1.028059892E1,3.074660410E-1,-2.219556869E0,-7.564708073E-1,2.364998127E0
1.029054892E1,4.069961764E-2,-1.871127720E0,-1.089316396E0,2.165498929E0
1.030049892E1,7.496422827E-2,-1.596156557E0,-9.537510395E-1,1.860907422E0
1.031044892E1,5.855230723E-1,-1.764071633E0,-4.151113077E-1,1.904495574E0
1.032039892E1,8.318474836E-1,-1.655617477E0,9.163522482E-2,1.855110908E0
1.033034792E1,6.087833693E-1,-1.416402622E0,4.758790811E-1,1.613466603E0
1.034029792E1,9.221219882E-2,-1.005577835E0,6.564937254E-1,1.204439241E0
1.035024792E1,-2.342738114E-1,-7.978508216E-1,5.747800561E-1,1.010852247E0
1.036019792E1,-3.336747234E-1,-9.245833737E-1,2.695835388E-1,1.019248998E0
1.037014792E1,-5.000291050E-1,-1.022161708E0,-1.709142597E-1,1.150676040E0
1.038009792E1,-6.110225971E-1,-1.084138101E0,-4.996434081E-1,1.341024822E0
1.039004692E1,-2.864205962E-1,-1.297242215E0,-4.651739987E-1,1.407572723E0
1.039999692E1,1.246990001E-1,-1.620066991E0,-2.194389868E-1,1.639609821E0
1.040994692E1,2.541777335E-1,-1.586439069E0,-1.103579362E-1,1.610457734E0
1.041989692E1,-1.115126152E-2,-1.529339254E0,-4.060770672E-2,1.529918916E0
1.042984692E1,-4.414717619E-1,-1.490531284E0,-3.602224711E-2,1.554952869E0
1.043979692E1,-8.536808407E-1,-1.451985269E0,-2.288377281E-1,1.699823198E0
1.044974592E1,-1.251316429E0,-1.622459087E0,-3.982292998E-1,2.087283610E0
1.045969592E1,-1.455628961E0,-1.652622533E0,-5.950091199E-1,2.281239304E0
1.046964592E1,-1.450928677E0,-1.683020453E0,-5.412334470E-1,2.287069198E0
1.047959592E1,-1.373874361E0,-1.415700372E0,-2.838951838E-1,1.993071694E0
1.048954592E1,-1.235272692E0,-1.086906758E0,4.216076374E-2,1.645916904E0
1.049949492E1,-1.132470601E0,-8.331703430E-1,2.793437111E-1,1.433420871E0
1.050944492E1,-1.213212025E0,-7.271264094E-1,4.348913419E-1,1.479772520E0
1.051939492E1,-1.168252199E0,-8.250579160E-1,3.596832848E-1,1.474756194E0
1.052934492E1,-1.274146005E0,-1.138493818E0,1.652697963E-1,1.716662553E0
1.053929492E1,-1.565619327E0,-1.233362553E0,-6.674540022E-2,1.994192070E0
1.054924492E1,-1.680671335E0,-1.311921065E0,-1.829740141E-1,2.139923481E0
1.055919392E1,-1.292853879E0,-1.224060802E0,-3.285603466E-1,1.810455165E0
1.056914392E1,-7.447295252E-1,-1.265371966E0,-2.497585541E-1,1.489351407E0
1.057909392E1,-5.706340878E-1,-1.138697301E0,-8.923907239E-2,1.276800070E0
1.058904392E1,-7.561516955E-1,-8.970827490E-1,-3.019220766E-2,1.173641519E0
1.059899392E1,-1.043052348E0,-9.078322703E-1,4.697068334E-2,1.383590936E0
1.060894392E1,-1.257426769E0,-1.130662057E0,2.467682880E-1,1.708921694E0
1.061889292E1,-1.183951973E0,-1.101830606E0,1.995285597E-1,1.629596455E0
1.062884292E1,-9.398837829E-1,-1.174513836E0,1.279639026E-1,1.509714886E0
1.063879292E1,-6.285699085E-1,-1.166946369E0,1.750661483E-1,1.336978727E0
1.064874292E1,-3.759773552E-1,-9.609852147E-1,1.455727925E-1,1.042133865E0
1.065869292E1,-1.731247996E-1,-5.008333164E-1,3.583689769E-1,6.397144134E-1
1.066864292E1,-3.127968013E-1,-3.338327444E-1,6.032788736E-1,7.571205580E-1
1.067859192E1,-8.481848965E-1,-5.711495930E-1,9.227952951E-1,1.377381804E0
1.068854192E1,-1.614781985E0,-6.358244759E-1,8.031349504E-1,1.912281196E0
1.069849192E1,-2.160975369E0,-6.409109688E-1,4.462850802E-1,2.297771048E0
1.070844192E1,-2.303937161E0,-7.381665373E-1,8.436874375E-2,2.420771439E0
1.071839192E1,-2.168948048E0,-5.959856415E-1,-4.027679086E-2,2.249701478E0
1.072834092E1,-1.438169175E0,-2.918222541E-1,2.454846780E-1,1.487868788E0
1.073829092E1,-6.487679455E-1,4.058844745E-2,1.076825573E0,1.257815799E0
1.074824092E1,-3.235401830E-1,3.203549123E-1,1.815663371E0,1.871881139E0
1.075819092E1,-6.259065749E-1,6.473101616E-1,2.040909666E0,2.230713283E0
1.076814092E1,-1.430636938E0,7.217212433E-1,1.635717064E0,2.289797789E0
1.077809092E1,-2.332844333E0,7.186181259E-1,9.776652744E-1,2.629525448E0
1.078803992E1,-2.767238954E0,4.090571737E-1,4.947405177E-1,2.840723038E0
1.079798992E1,-2.861278262E0,-4.416279191E-1,2.752845740E-1,2.908217685E0
1.080793992E1,-3.021400754E0,-4.996398997E-1,-2.376171032E-1,3.071638721E0
1.081788992E1,-3.030660989E0,-2.870544344E-1,-3.747495130E-1,3.067204505E0
1.082783992E1,-2.659020733E0,-4.035221994E-1,2.166943038E-1,2.698180470E0
1.083778992E1,-2.053875136E0,3.814957380E-2,1.114555317E0,2.337111897E0
1.084773892E1,-1.847251784E0,8.758409840E-1,1.723056631E0,2.673641849E0
1.085768892E1,-2.095639605E0,1.220437868E0,1.771375683E0,3.003155965E0
1.086763892E1,-2.455299062E0,1.298461944E0,1.370824161E0,3.097362714E0
1.087758892E1,-2.544023835E0,9.416011101E-1,7.966460028E-1,2.827245087E0
1.088753892E1,-2.160346794E0,1.069046438E-1,4.209580117E-1,2.203572672E0
1.089748792E1,-1.309115132E0,-1.687687701E-1,1.225459456E-2,1.320005872E0
1.090743792E1,-4.863800957E-1,-2.976542670E-1,-6.869016588E-2,5.743535488E-1
1.091738792E1,-4.930491010E-2,-3.232358354E-1,1.414236814E-1,3.562485609E-1
1.092733792E1,-2.436110291E-1,2.560209221E-1,4.457390964E-1,5.688377520E-1
1.093728792E1,-8.545512718E-1,1.218538107E0,2.818109438E-1,1.514764141E0
1.094723792E1,-1.624010645E0,8.232657444E-1,4.902902019E-1,1.885619671E0
1.095718692E1,-2.203850663E0,4.114469308E-1,3.318727577E-1,2.266359602E0
1.096713692E1,-2.106868452E0,-1.157087964E-1,6.337270796E-2,2.110994860E0
1.097708692E1,-1.458270295E0,-3.616795242E-1,-2.108090812E-1,1.517169997E0
1.098703692E1,-1.082077031E0,-7.203184962E-3,-2.356942463E-1,1.107472060E0
1.099698692E1,-5.985880544E-1,4.492328078E-1,1.824401450E-1,7.703260225E-1
1.100693692E1,-3.167915460E-1,7.764371485E-1,7.549837142E-1,1.128366934E0
1.101688592E1,-7.127441593E-1,1.007195175E0,1.007475842E0,1.592938771E0
1.102683592E1,-1.260110933E0,9.016634578E-1,7.557026294E-1,1.723938230E0
1.103678592E1,-1.484907724E0,2.006588995E-2,3.698355129E-1,1.530402527E0
1.104673592E1,-2.057664278E0,-8.199053496E-1,-3.202256888E-1,2.238028497E0
1.105668592E1,-2.727689557E0,-7.524887073E-1,-1.036254083E0,3.013362258E0
1.106663592E1,-2.126845171E0,-5.487904251E-2,-1.162795139E0,2.424577206E0
1.107658492E1,-6.108289446E-1,3.152783597E-1,-2.254227349E-1,7.234140260E-1
1.108653492E1,4.878680659E-1,8.970406491E-1,8.519051144E-1,1.329826868E0
1.109648492E1,1.111344099E0,1.532492073E0,1.488902249E0,2.408411835E0
1.110643492E1,1.177126372E0,1.599488300E0,1.684356542E0,2.604044216E0
1.111638492E1,6.700369732E-1,1.332478121E0,1.182636203E0,1.903437910E0
1.112633479E1,-7.967955088E-2,6.570299882E-1,2.982571149E-1,7.259438978E-1
1.113628379E1,-1.142694019E0,-5.566023052E-2,-7.108486381E-1,1.346905145E0
1.114623379E1,-2.438929490E0,-1.300824219E-1,-1.583068149E0,2.910567514E0
1.115618379E1,-2.605784174E0,4.101821780E-1,-1.715075474E0,3.146401828E0
1.116613379E1,-1.026659971E0,8.468984360E-1,-9.170112294E-1,1.616223144E0
1.117608379E1,3.364005126E-1,1.032321830E0,4.931050515E-1,1.192479039E0
1.118603379E1,6.633047815E-1,1.560132446E0,1.405771800E0,2.202312610E0
1.119598279E1,6.172806162E-1,1.826797054E0,1.788098427E0,2.629737406E0
1.120593279E1,6.793982924E-1,1.529074375E0,1.650333349E0,2.350159706E0
1.121588279E1,2.774530505E-1,1.098669602E0,9.447942746E-1,1.475361417E0
1.122583279E1,-8.226517137E-1,9.178497201E-1,-1.618000585E-1,1.243134429E0
1.123578279E1,-1.841270229E0,6.736220473E-1,-1.002900395E0,2.202237935E0
1.124573179E1,-1.823135528E0,9.980729342E-1,-1.279966616E0,2.440960318E0
1.125568179E1,-4.173354058E-1,1.438957672E0,-7.139941478E-1,1.659685412E0
1.126563179E1,9.737384306E-1,1.473535767E0,5.870440793E-1,1.861207924E0
1.127558179E1,1.745531720E0,1.798113538E0,1.565684377E0,2.954904542E0
1.128553179E1,1.701642081E0,2.173571441E0,1.881541611E0,3.340688165E0
1.129548179E1,1.225036922E0,2.043646309E0,1.693184084E0,2.923025494E0
1.130543079E1,5.877458914E-1,1.684209777E0,1.097283812E0,2.094287365E0
1.131538079E1,-1.907089119E-1,1.294098167E0,3.737680578E-1,1.360427328E0
1.132533079E1,-9.685108736E-1,9.169007170E-1,-1.672204274E-1,1.344129052E0
1.133528079E1,-1.309837994E0,8.652961153E-1,-2.810049051E-1,1.594796757E0
1.134523079E1,-6.024680840E-1,1.151374065E0,7.436430395E-2,1.301599047E0
1.135518079E1,3.604940743E-1,1.119991474E0,8.041242993E-1,1.425115001E0
1.136512979E1,6.732571810E-1,1.317646658E0,1.412276827E0,2.045481309E0
1.137507979E1,5.740536857E-1,1.618372468E0,1.725757168E0,2.434523543E0
1.138502979E1,4.896164565E-1,1.600560095E0,1.792928227E0,2.452775676E0
1.139497979E1,4.586163463E-1,1.499670482E0,1.666305603E0,2.288212156E0
1.140492979E1,2.538763095E-1,1.515598882E0,1.512571194E0,2.156238569E0
1.141487979E1,1.986324739E-1,1.446975374E0,1.397800291E0,2.021642462E0
1.142482879E1,2.698571154E-1,1.324078596E0,1.271753032E0,1.855630018E0
1.143477879E1,3.297698066E-1,1.106594918E0,1.120899546E0,1.609259528E0
1.144472879E1,1.902890819E-1,1.036800213E0,9.120358336E-1,1.393906015E0
1.145467879E1,-1.402059987E-2,9.726521641E-1,7.352669030E-1,1.219371243E0
1.146462879E1,-2.603184063E-1,8.556862164E-1,6.370366037E-1,1.098080237E0
1.147457879E1,-4.388511495E-1,8.385696620E-1,5.609935641E-1,1.100228698E0
1.148452779E1,-4.106869389E-1,9.022335613E-1,4.920192236E-1,1.106694211E0
1.149447779E1,-2.007068467E-1,9.851622820E-1,4.636327457E-1,1.107150976E0
1.150442779E1,2.036805213E-1,8.444671637E-1,4.993270737E-1,1.001967101E0
1.151437779E1,5.564683308E-1,7.695146298E-1,6.013194716E-1,1.124008397E0
1.152432779E1,5.850987107E-1,8.323482245E-1,7.179082739E-1,1.245205348E0
1.153427779E1,1.642240948E-1,8.061538678E-1,7.826381207E-1,1.135506953E0
1.154422679E1,-1.563172705E-1,7.441897541E-1,6.035016525E-1,9.708077687E-1
1.155417679E1,-2.946420007E-1,5.131960845E-1,3.573993623E-1,6.913164499E-1
1.156412679E1,-2.575459490E-1,4.160457659E-1,1.766613418E-1,5.202242063E-1
1.157407679E1,6.537947237E-2,4.865859908E-1,2.298265654E-1,5.420891550E-1
1.158402679E1,5.018875694E-1,6.324348450E-1,5.401909250E-1,9.714274038E-1
1.159397679E1,9.657614397E-1,7.125896466E-1,9.169252753E-1,1.510374498E0
1.160392579E1,1.344936199E0,7.924971110E-1,1.174800349E0,1.953729999E0
1.161387579E1,1.465214302E0,7.675996667E-1,1.286133674E0,2.095280894E0
1.162382579E1,1.340644342E0,7.669406855E-1,1.160680493E0,1.932020827E0
1.163377579E1,1.195121543E0,7.836444265E-1,9.096571863E-1,1.694075054E0
1.164372579E1,1.242290521E0,6.942048311E-1,7.427665418E-1,1.605275123E0
1.165367579E1,1.518418702E0,6.290136391E-1,6.882535350E-1,1.781837939E0
1.166362479E1,1.775944405E0,7.364176351E-1,8.625075781E-1,2.107180292E0
1.167357479E1,2.054467020E0,8.656644899E-1,1.225206857E0,2.543883171E0
1.168352479E1,2.086410213E0,9.910831726E-1,1.659139840E0,2.843958235E0
1.169347479E1,1.796745290E0,1.192473559E0,1.878775878E0,2.860084898E0
1.170342479E1,1.493479596E0,1.172131096E0,1.892391704E0,2.680581834E0
1.171337479E1,1.359775993E0,1.034342628E0,1.739810951E0,2.438400617E0
1.172332379E1,1.248434921E0,9.570944774E-1,1.454723520E0,2.142624584E0
1.173327379E1,1.283158319E0,7.559754020E-1,1.274687750E0,1.960311949E0
1.174322379E1,1.461574410E0,4.680392075E-1,1.210287978E0,1.954496724E0
1.175317379E1,1.626017264E0,1.254099119E-1,1.248386097E0,2.053808081E0
1.176312379E1,1.573105663E0,9.652349710E-2,1.159851066E0,1.956842535E0
1.177307379E1,1.352302521E0,1.829371583E-1,1.188120891E0,1.809369881E0
1.178302279E1,1.224470108E0,1.299298096E-1,1.360341858E0,1.834867507E0
1.179297279E1,1.083498124E0,1.571696484E-1,1.411476928E0,1.786319568E0
1.180292279E1,8.630496150E-1,6.521282673E-2,1.320788367E0,1.579110276E0
1.181287279E1,8.426882945E-1,-1.596833664E-1,1.180942265E0,1.459536561E0
1.182282279E1,9.681708580E-1,-4.190009487E-1,9.588194060E-1,1.425570503E0
1.183277279E1,1.145798745E0,-6.594828951E-1,6.880857199E-1,1.490380626E0
1.184272179E1,1.548425151E0,-9.878613567E-1,4.196786410E-1,1.884043701E0
1.185267179E1,1.797963118E0,-1.106238822E0,1.212946415E-1,2.114508949E0
1.186262179E1,1.604683551E0,-9.701133031E-1,-2.032199800E-1,1.886114387E0
1.187257179E1,1.283576833E0,-9.293880308E-1,-4.534103510E-1,1.648305962E0
1.188252179E1,1.137780896E0,-9.768177205E-1,-5.757960829E-1,1.606318572E0
1.189247179E1,1.418230754E0,-9.467589390E-1,-6.047172886E-1,1.809257848E0
1.190242079E1,1.965034296E0,-9.304001838E-1,-4.250297204E-1,2.215322674E0
1.191237079E1,2.366251376E0,-8.905502397E-1,-9.358497888E-2,2.530016493E0
1.192232079E1,2.381293339E0,-6.382493162E-1,1.441046298E-1,2.469551842E0
1.193227079E1,1.958598412E0,-3.794281626E-1,3.311424404E-1,2.022307787E0
1.194222079E1,1.458721553E0,-3.359155226E-1,5.806960496E-1,1.605588898E0
1.195217079E1,1.159603728E0,-3.843287140E-1,6.890370619E-1,1.402555325E0
1.196211979E1,1.060853612E0,-4.126491183E-1,6.525130141E-1,1.312045317E0
1.197206979E1,1.122554893E0,-6.167584598E-1,5.602313796E-1,1.397991303E0
1.198201979E1,1.197184953E0,-8.055843490E-1,5.028155226E-1,1.528084227E0
1.199196979E1,1.251958161E0,-9.242980295E-1,4.016528445E-1,1.607187323E0
1.200191979E1,1.178577066E0,-1.043431540E0,2.246737066E-1,1.590053947E0
1.201186979E1,9.934735143E-1,-1.108480645E0,-7.344687581E-3,1.488547247E0
1.202181879E1,8.485684007E-1,-1.111734620E0,-2.390887012E-1,1.418867719E0
1.203176879E1,9.047051793E-1,-1.174887473E0,-3.570004360E-1,1.525221737E0
1.204171879E1,1.255380244E0,-1.303301684E0,-2.744134851E-1,1.830267084E0
1.205166879E1,1.521232674E0,-1.221913120E0,1.010258532E-1,1.953823622E0
1.206161879E1,1.477601043E0,-1.049348338E0,6.173675935E-1,1.914570323E0
1.207156879E1,1.078040040E0,-8.285586441E-1,1.118847027E0,1.760823224E0
1.208151779E1,5.737510192E-1,-5.567584258E-1,1.365111724E0,1.581992476E0
1.209146779E1,3.462393665E-1,-5.262745517E-1,1.495290040E0,1.622571695E0
1.210141779E1,2.860267863E-1,-6.300766629E-1,1.385763505E0,1.548918466E0
1.211136779E1,3.025191504E-1,-7.738199347E-1,1.264935033E0,1.513398746E0
1.212131779E1,4.622066098E-1,-7.866282606E-1,1.217352730E0,1.521304257E0
1.213126796E1,7.211286280E-1,-9.406462598E-1,1.344643107E0,1.792458359E0
1.214121696E1,8.706451482E-1,-1.084822226E0,1.301465220E0,1.904907860E0
1.215116696E1,7.343252090E-1,-1.180042378E0,1.192871900E0,1.831577707E0
1.216111696E1,6.395468134E-1,-1.362272608E0,9.186174595E-1,1.763140613E0
1.217106696E1,4.288371348E-1,-1.517315624E0,4.730910556E-1,1.646196568E0
1.218101696E1,-3.901759297E-2,-1.388462872E0,1.126306759E-1,1.393569944E0
1.219096696E1,-3.328708774E-1,-1.065757379E0,6.383405328E-3,1.116549399E0
1.220091596E1,-1.310352257E-1,-9.068902838E-1,3.338901933E-1,9.752450351E-1
1.221086596E1,3.439991520E-1,-8.105036116E-1,8.992648568E-1,1.258542333E0
1.222081596E1,5.643722315E-1,-7.049034816E-1,1.368866513E0,1.639878186E0
1.223076596E1,6.055075398E-1,-5.584283906E-1,1.564849979E0,1.768399589E0
1.224071596E1,4.944370472E-1,-7.173907954E-1,1.563995701E0,1.790307264E0
1.225066596E1,3.079249012E-1,-1.003183985E0,1.270701703E0,1.647992315E0
1.226061496E1,2.056497905E-1,-1.219464891E0,7.305364325E-1,1.436339074E0
1.227056496E1,4.120342836E-2,-1.388772190E0,1.458780172E-1,1.397020513E0
1.228051496E1,-2.698656669E-1,-1.588676214E0,-2.902727785E-1,1.637369194E0
1.229046496E1,-3.391177502E-1,-1.754412618E0,-4.797465026E-1,1.850167881E0
1.230041496E1,1.140483333E-1,-1.795992168E0,-3.923809147E-1,1.841889702E0
1.231036496E1,4.751937144E-1,-1.775424587E0,-3.464062314E-2,1.838244136E0
1.232031396E1,5.773856485E-1,-1.592506725E0,2.558753264E-1,1.713162000E0
1.233026396E1,4.512300704E-1,-1.433763590E0,5.109419463E-1,1.587560481E0
1.234021396E1,4.726713717E-2,-1.102331713E0,6.459284645E-1,1.278512014E0
1.235016396E1,-5.746764873E-1,-8.210145664E-1,6.048944592E-1,1.170561955E0
1.236011396E1,-1.032995722E0,-7.800951666E-1,4.410718489E-1,1.367542689E0
1.237006396E1,-1.092381067E0,-9.631557012E-1,2.885671091E-1,1.484667060E0
1.238001396E1,-7.686317003E-1,-1.271705670E0,2.650835216E-1,1.509403616E0
1.238996296E1,-2.091236213E-1,-1.623741966E0,3.985591193E-1,1.684968852E0
1.239991296E1,2.078525828E-1,-1.700707111E0,5.295858300E-1,1.793340048E0
1.240986296E1,1.684543361E-1,-1.460470748E0,3.794621130E-1,1.518335656E0
1.241981296E1,-3.411150129E-1,-1.195375532E0,7.908589404E-2,1.245606958E0
1.242976296E1,-8.134865686E-1,-1.089062042E0,-3.370604439E-1,1.400509290E0
1.243971296E1,-9.489213856E-1,-1.171835226E0,-5.883222806E-1,1.618571191E0
1.244966196E1,-9.666286549E-1,-1.397962843E0,-6.578736683E-1,1.822489734E0
1.245961196E1,-1.160817757E0,-1.475750692E0,-6.997877526E-1,2.003756689E0
1.246956196E1,-1.256780652E0,-1.443137262E0,-7.342288761E-1,2.049691393E0
1.247951196E1,-1.313784280E0,-1.540026795E0,-6.194130957E-1,2.116928021E0
1.248946196E1,-1.480672293E0,-1.400738516E0,-4.912514842E-1,2.096613186E0
1.249941196E1,-1.523893596E0,-1.246110068E0,-3.654147986E-1,2.002141346E0
1.250936096E1,-1.539994196E0,-1.324126543E0,-2.725480771E-1,2.049189030E0
1.251931096E1,-1.804324304E0,-1.310668007E0,-3.995506974E-1,2.265629621E0
1.252926096E1,-2.142547431E0,-1.281976304E0,-6.592969537E-1,2.582372012E0
1.253921096E1,-2.344587296E0,-1.308822041E0,-8.615158173E-1,2.819984792E0
1.254916096E1,-2.439893403E0,-1.323074044E0,-9.168492615E-1,2.923049317E0
1.255911096E1,-2.184414226E0,-1.329366817E0,-8.906513965E-1,2.707792746E0
1.256905996E1,-1.598438433E0,-1.379714853E0,-5.963750660E-1,2.194147150E0
1.257900996E1,-1.229922929E0,-1.093832785E0,-3.332609598E-1,1.679358044E0
1.258895996E1,-1.439015413E0,-6.320734870E-1,-2.166275724E-1,1.586571700E0
1.259890996E1,-1.571285571E0,-3.659801513E-1,-6.469359398E-2,1.614640851E0
1.260885996E1,-1.255988646E0,-3.256425494E-1,1.475299287E-1,1.305877341E0
1.261880996E1,-8.961859323E-1,-3.735201359E-1,2.775101339E-1,1.009791261E0
1.262875896E1,-7.543761885E-1,-2.667137253E-1,2.598724830E-1,8.412807810E-1
1.263870896E1,-7.156658667E-1,-1.292760909E-1,1.814998396E-1,7.495546226E-1
1.264865896E1,-7.245852095E-1,-3.871266067E-2,9.713160753E-2,7.320908039E-1
1.265860896E1,-6.732785234E-1,2.480622768E-2,-1.027238846E-2,6.738136545E-1
1.266855896E1,-5.307791005E-1,4.678064883E-2,-2.280297160E-2,5.333243461E-1
1.267850896E1,-3.036672512E-1,6.708744407E-2,-7.100931779E-3,3.110706476E-1
1.268845896E1,-2.724080363E-1,6.859427154E-2,-9.511080980E-3,2.810725404E-1
1.269840796E1,-3.816879652E-1,1.204812938E-1,-1.032840478E-1,4.133630844E-1
1.270835796E1,-4.078207800E-1,1.748954827E-1,-2.331974487E-1,5.012856157E-1
1.271830796E1,-3.602830629E-1,1.351706690E-1,-2.591661394E-1,4.639418961E-1
1.272825796E1,-2.839520480E-1,1.191370189E-1,-3.143497853E-1,4.400433869E-1
1.273820796E1,-2.807588835E-1,1.747481328E-1,-4.449952940E-1,5.544215655E-1
1.274815796E1,-3.568459234E-1,2.826169825E-1,-5.483436247E-1,7.126654913E-1
1.275810696E1,-3.945370755E-1,3.360143405E-1,-5.715722736E-1,7.715309488E-1
1.276805696E1,-2.510233068E-1,2.920748538E-1,-4.286699045E-1,5.762623602E-1
1.277800696E1,1.184384228E-1,2.464291495E-1,-1.647768029E-1,3.192277878E-1
1.278795696E1,4.968756285E-1,1.677186102E-1,7.697753426E-2,5.300381715E-1
1.279790696E1,5.884690458E-1,1.385234624E-1,1.913092383E-1,6.341007744E-1
1.280785696E1,3.687973398E-1,2.437973177E-1,1.529444869E-1,4.678040466E-1
1.281780596E1,9.397601143E-2,2.997183341E-1,-3.376306571E-2,3.159153607E-1
1.282775596E1,-1.455494767E-1,1.843428290E-1,-1.603845207E-1,2.844118901E-1
1.283770596E1,-4.046128513E-1,1.055960369E-1,-2.913644902E-1,5.096619944E-1
1.284765596E1,-5.782545447E-1,3.203104734E-2,-3.862202517E-1,6.961109031E-1
1.285760596E1,-5.964684753E-1,-1.482462126E-1,-3.541985599E-1,7.093716948E-1
1.286755596E1,-3.535330372E-1,-3.203964275E-1,-2.530101176E-1,5.400496262E-1
1.287750596E1,-4.458458081E-2,-2.801453644E-1,-1.592255294E-1,3.253029039E-1
1.288745496E1,1.492630434E-1,-2.127018249E-1,-2.663406730E-2,2.612104439E-1
1.289740496E1,1.234557724E-1,-8.161952913E-2,6.908477984E-2,1.633272239E-1
1.290735496E1,3.410198495E-2,2.309650183E-2,9.309695564E-2,1.018009672E-1
1.291730496E1,3.611781254E-2,-7.934730113E-2,6.466790278E-2,1.085468941E-1
1.292725496E1,-1.017247416E-1,-1.652481616E-1,-5.777275644E-2,2.024662178E-1
1.293720496E1,-3.174033840E-1,-2.174234515E-1,-2.818217611E-1,4.769081363E-1
1.294715396E1,-4.838721518E-1,-3.107859439E-1,-3.965757072E-1,6.985645666E-1
1.295710396E1,-5.934555513E-1,-3.115770721E-1,-5.236918366E-1,8.506014948E-1
1.296705396E1,-6.011320683E-1,-2.246242976E-1,-5.619525806E-1,8.529985589E-1
1.297700396E1,-8.498182431E-2,-3.673747122E-1,-3.938263464E-1,5.452387374E-1
1.298695396E1,4.672647437E-1,-4.620627683E-1,-2.165164753E-1,6.918943031E-1
1.299690396E1,5.661535858E-1,-3.600920051E-1,-1.349466475E-1,6.844024638E-1
1.300685296E1,3.452583499E-1,-2.702477825E-1,-9.350165606E-2,4.483076531E-1
1.301680296E1,-1.638784513E-2,-1.561908245E-1,-1.029062812E-1,1.877600539E-1
1.302675296E1,-2.128493209E-1,-1.209981877E-1,-1.273921911E-1,2.759966760E-1
1.303670296E1,-2.098317191E-1,-1.273804235E-1,-1.417621621E-1,2.834636365E-1
1.304665296E1,-1.725934339E-1,-1.361874998E-1,-1.951086859E-1,2.939437494E-1
1.305660296E1,-2.795353536E-1,-3.689300716E-2,-2.934542120E-1,4.069600502E-1
1.306655196E1,-3.327336140E-1,-2.242582619E-2,-3.046960322E-1,4.517236408E-1
1.307650196E1,3.257776201E-3,-1.356513101E-1,-2.001139390E-1,2.417798164E-1
1.308645196E1,3.454909229E-1,-1.573696232E-1,-1.503985361E-1,4.083489878E-1
1.309640196E1,2.977238488E-1,-9.713453114E-2,-1.463592796E-1,3.456814227E-1
1.310635196E1,2.448454311E-1,2.377594829E-2,-1.259257094E-1,2.763546004E-1
1.311630196E1,3.196212329E-1,6.219975650E-2,1.948412854E-2,3.261995915E-1
1.312625167E1,4.320674291E-1,1.618988764E-1,2.889939924E-1,5.444364399E-1
1.313620067E1,3.229387969E-1,3.447991973E-1,4.819111419E-1,6.748439091E-1
1.314615067E1,1.609475344E-1,3.772208387E-1,5.126955994E-1,6.565488920E-1
1.315610067E1,8.586007610E-2,3.845415527E-1,3.376919067E-1,5.189219423E-1
1.316605067E1,5.627521142E-2,3.236895794E-1,1.634366941E-1,3.669514903E-1
1.317600067E1,8.707030356E-2,9.082070768E-2,1.112596865E-1,1.679534357E-1
1.318595067E1,2.024784069E-1,5.923170984E-2,4.114104588E-2,2.149383315E-1
1.319590067E1,2.857952365E-1,8.189727187E-2,5.308226623E-2,3.019996810E-1
1.320584967E1,2.910454515E-1,3.121653020E-2,-1.014959693E-2,2.928906637E-1
1.321579967E1,2.677125759E-1,-4.108721495E-2,-1.332089281E-1,3.018324056E-1
1.322574967E1,1.649654487E-1,-6.842411757E-2,-3.122191695E-1,3.596891282E-1
1.323569967E1,2.700375751E-2,2.347540140E-2,-4.577469385E-1,4.591432860E-1
1.324564967E1,-9.130661130E-2,-2.875134408E-2,-3.678330608E-1,3.800851190E-1
1.325559967E1,-9.046958238E-2,4.393773258E-2,-3.033886313E-1,3.196246726E-1
1.326554867E1,-3.824225217E-2,9.211937428E-2,-2.188553250E-1,2.405121665E-1
1.327549867E1,8.526848406E-3,1.214846760E-1,-1.248415625E-1,1.744036966E-1
1.328544867E1,5.198671728E-2,8.779068053E-2,-4.137723684E-2,1.100994918E-1
1.329539867E1,2.429325145E-1,-3.245029271E-2,1.708560068E-2,2.456850542E-1
1.330534867E1,3.109221840E-1,-2.741817892E-2,-7.614003025E-2,3.212812868E-1
1.331529867E1,1.697300524E-1,-1.090096414E-2,-2.497999962E-1,3.022038382E-1
1.332524867E1,-1.513902605E-2,-1.442554879E-1,-3.906687769E-1,4.167264440E-1
1.333519767E1,-8.476635441E-2,-1.877593571E-1,-5.186538025E-1,5.580687035E-1
1.334514767E1,-1.097361580E-1,-1.898222548E-1,-5.913289189E-1,6.306698052E-1
1.335509767E1,-9.765449479E-2,-2.781011778E-1,-5.741404073E-1,6.453788598E-1
1.336504767E1,-8.347295031E-2,-2.796232080E-1,-6.224559867E-1,6.874651463E-1
1.337499767E1,-4.202481598E-2,-2.407251906E-1,-6.232967433E-1,6.694875150E-1
1.338494767E1,9.592678875E-2,-2.952902377E-1,-5.481109055E-1,6.299395511E-1
1.339489667E1,1.476965743E-1,-2.975747448E-1,-4.401222610E-1,5.514277935E-1
1.340484667E1,2.619187161E-2,-3.001498586E-1,-4.086689186E-1,5.077265374E-1
1.341479667E1,-1.047850281E-1,-3.203502345E-1,-3.837562716E-1,5.107573307E-1
1.342474667E1,-1.429321168E-1,-3.409938294E-1,-3.954472677E-1,5.413731829E-1
1.343469667E1,-1.700459482E-1,-3.144328523E-1,-4.321115391E-1,5.608065845E-1
1.344464667E1,-1.756562054E-1,-3.260196948E-1,-4.614037871E-1,5.916395851E-1
1.345459667E1,-1.570455413E-1,-3.486922735E-1,-4.882624241E-1,6.202014176E-1
1.346454567E1,-6.450794488E-2,-2.831040555E-1,-4.734852676E-1,5.554254944E-1
1.347449567E1,7.481980205E-2,-2.653624338E-1,-4.115574431E-1,4.953733471E-1
1.348444567E1,1.760970855E-1,-2.660991830E-1,-3.518795542E-1,4.750138728E-1
1.349439567E1,2.206859055E-1,-2.849114299E-1,-3.412610837E-1,4.963223942E-1
1.350434567E1,1.520799395E-1,-2.994177872E-1,-4.003389386E-1,5.225424242E-1
1.351429567E1,8.058120981E-2,-2.723521954E-1,-4.404602301E-1,5.240937550E-1
1.352424567E1,1.212513721E-1,-2.229876620E-1,-4.151043642E-1,4.865562925E-1
1.353419467E1,2.434691428E-1,-1.149878347E-1,-3.557820225E-1,4.461841247E-1
1.354414467E1,3.835916725E-1,-1.331346685E-1,-2.806850259E-1,4.936106714E-1
1.355409467E1,6.766823338E-1,-1.433953625E-1,-2.054453937E-1,7.215739884E-1
1.356404467E1,9.785099047E-1,-1.661673439E-1,-1.342683705E-1,1.001559392E0
1.357399467E1,9.857870570E-1,-1.710673106E-1,-6.361185908E-2,1.002540082E0
1.358394467E1,8.273145027E-1,-6.482924938E-2,-3.885010678E-2,8.307595614E-1
1.359389367E1,7.155405901E-1,2.833268344E-2,-5.273724396E-2,7.180405935E-1
1.360384367E1,6.626022385E-1,7.522676826E-2,-6.623608947E-2,6.701402933E-1
1.361379367E1,6.396570334E-1,1.092271578E-1,-9.739356279E-2,6.561838145E-1
1.362374367E1,6.061198895E-1,1.361857456E-1,-1.419282595E-1,6.372374036E-1
1.363369367E1,6.538764386E-1,7.769312382E-2,-6.355687698E-2,6.615361631E-1
1.364364367E1,9.331189929E-1,-2.231940687E-2,1.055200414E-1,9.393315123E-1
1.365359367E1,1.133915594E0,-9.780988455E-2,2.720662300E-1,1.170192882E0
1.366354267E1,1.061393748E0,-7.718558550E-2,3.696504486E-1,1.126568133E0
1.367349267E1,9.983445373E-1,-7.411930561E-3,3.308518338E-1,1.051765035E0
1.368344267E1,9.294644831E-1,-4.831320405E-2,3.194532716E-1,9.840166583E-1
1.369339267E1,9.903570946E-1,-1.939211529E-1,2.758365512E-1,1.046182771E0
1.370334267E1,1.000672314E0,-2.687392008E-1,1.756550725E-1,1.050914146E0
1.371329267E1,9.201168318E-1,-3.034166980E-1,7.246574957E-2,9.715595513E-1
1.372324267E1,8.619311889E-1,-3.977182531E-1,-2.593474030E-2,9.496198155E-1
1.373319167E1,8.563106990E-1,-5.047123593E-1,-1.243889515E-1,1.001736088E0
1.374314167E1,8.766686574E-1,-5.311201394E-1,-2.082322133E-1,1.045943207E0
1.375309167E1,1.022486083E0,-5.594399589E-1,-1.991619758E-1,1.182419701E0
1.376304167E1,1.245264853E0,-5.649731791E-1,-1.309542052E-1,1.373691469E0
1.377299167E1,1.419557926E0,-6.010920149E-1,-2.766898792E-2,1.541824208E0
1.378294167E1,1.508205224E0,-5.404844552E-1,5.530300219E-2,1.603079806E0
1.379289067E1,1.427411175E0,-3.541898257E-1,1.104913624E-1,1.474842852E0
1.380284067E1,1.386885001E0,-3.275534195E-1,2.410842097E-1,1.445289882E0
1.381279067E1,1.367610385E0,-4.326062500E-1,2.538159736E-1,1.456684208E0
1.382274067E1,1.279682588E0,-4.749482775E-1,1.019509192E-1,1.368779522E0
1.383269067E1,1.168587683E0,-4.192740136E-1,-1.697726639E-1,1.253080456E0
1.384264067E1,1.069171422E0,-4.228069013E-1,-3.925808895E-1,1.214912738E0
1.385259067E1,9.826221053E-1,-4.616213036E-1,-4.756499434E-1,1.185277730E0
1.386253967E1,8.858707130E-1,-4.451257235E-1,-4.390767789E-1,1.084293432E0
1.387248967E1,8.836699672E-1,-4.425827694E-1,-3.027559261E-1,1.033640784E0
1.388243967E1,1.123754449E0,-4.876934534E-1,-1.344976544E-2,1.225091777E0
1.389238967E1,1.499996902E0,-4.651103371E-1,2.763078002E-1,1.594573402E0
1.390233967E1,1.588803975E0,-3.892549932E-1,3.842380822E-1,1.680314383E0
1.391228967E1,1.303004792E0,-3.120694077E-1,3.774681759E-1,1.392009708E0
1.392223967E1,1.021802543E0,-3.456411964E-1,2.258639073E-1,1.102072039E0
1.393218867E1,7.523808262E-1,-5.198700964E-1,8.157450557E-2,9.181482586E-1
1.394213867E1,7.373935354E-1,-6.504115248E-1,-1.603470985E-1,9.962407187E-1
1.395208867E1,8.543675230E-1,-8.293304765E-1,-2.824649914E-1,1.223731741E0
1.396203867E1,1.162032516E0,-1.039206927E0,-2.824228184E-1,1.584308446E0
1.397198867E1,1.252585128E0,-1.041676206E0,-2.753606244E-1,1.652235545E0
1.398193867E1,1.020561472E0,-9.833128077E-1,-1.682208860E-1,1.427146826E0
1.399188867E1,7.551174693E-1,-8.114637244E-1,-9.513419867E-2,1.112531476E0
1.400183767E1,6.723653345E-1,-7.242004627E-1,7.225404382E-2,9.908390889E-1
1.401178767E1,7.163051136E-1,-7.812675333E-1,2.890348498E-1,1.098641488E0
1.402173767E1,7.236481932E-1,-7.633271062E-1,3.487010443E-1,1.108118855E0
1.403168767E1,5.892296223E-1,-8.397841287E-1,2.729398040E-1,1.061567269E0
1.404163767E1,4.406590354E-1,-1.014802403E0,2.184846846E-1,1.127714441E0
1.405158767E1,3.946661527E-1,-9.620464844E-1,1.772185997E-1,1.054846549E0
1.406153767E1,4.386948095E-1,-1.008845844E0,2.095466673E-1,1.119880743E0
1.407148667E1,4.130376658E-1,-1.155914428E0,2.123860570E-1,1.245731157E0
1.408143667E1,2.487778299E-1,-1.132110413E0,2.195769993E-1,1.179736604E0
1.409138667E1,2.179141791E-1,-9.600853282E-1,2.503392009E-1,1.015834702E0
1.410133667E1,2.352775591E-1,-1.116855612E0,4.024334478E-1,1.210237443E0
1.411128667E1,1.301240102E-1,-1.269138742E0,5.692053938E-1,1.397011161E0
1.412123667E1,-1.211920960E-1,-1.053720886E0,5.192163777E-1,1.180932206E0
1.413118667E1,-4.064293619E-1,-1.004486160E0,4.313432515E-1,1.166290818E0
1.414113567E1,-6.224301859E-1,-1.088754478E0,3.859454691E-1,1.312158357E0
1.415108567E1,-6.104322110E-1,-1.089910473E0,2.640006173E-1,1.276804076E0
1.416103567E1,-4.872104003E-1,-1.122248499E0,1.361091471E-1,1.230992026E0
1.417098567E1,-3.601080850E-1,-1.180313104E0,6.238628268E-2,1.235600625E0
1.418093567E1,-2.743012916E-1,-1.132823773E0,1.383182251E-1,1.173738826E0
1.419088567E1,-2.657805097E-1,-1.096568112E0,3.623490304E-1,1.185072877E0
1.420083567E1,-5.023306056E-1,-1.058967007E0,6.179267335E-1,1.324983248E0
1.421078467E1,-9.785479116E-1,-1.029471897E0,7.467040569E-1,1.604660510E0
1.422073467E1,-1.306013038E0,-9.105225742E-1,5.801256537E-1,1.694481392E0
1.423068467E1,-1.430887491E0,-7.802460247E-1,3.158104563E-1,1.660108164E0
1.424063467E1,-1.317958315E0,-7.273696536E-1,1.729653168E-1,1.515255006E0
1.425058467E1,-9.955521995E-1,-7.752104026E-1,2.128064718E-1,1.279594445E0
1.426053467E1,-7.742241966E-1,-8.174881107E-1,4.451181221E-1,1.210718820E0
1.427048467E1,-8.636436921E-1,-8.496858037E-1,8.847486323E-1,1.500208830E0
1.428043367E1,-1.137892944E0,-8.973230696E-1,1.302523420E0,1.948475379E0
1.429038367E1,-1.303415266E0,-9.869871980E-1,1.459366794E0,2.191526072E0
1.430033367E1,-1.593100363E0,-1.199525301E0,1.335753146E0,2.400222111E0
1.431028367E1,-1.949825395E0,-1.217693185E0,1.014321177E0,2.512656605E0
1.432023367E1,-2.190183527E0,-1.186430461E0,6.810515195E-1,2.582315297E0
1.433018367E1,-2.178796221E0,-1.202027909E0,4.621779585E-1,2.530935110E0
1.434013367E1,-1.915390411E0,-1.216782773E0,4.001601235E-1,2.304215456E0
1.435008367E1,-1.573030234E0,-1.338225349E0,5.285695839E-1,2.131820116E0
1.436003267E1,-1.357684298E0,-1.568767614E0,7.580868316E-1,2.208853577E0
1.436998267E1,-1.399858803E0,-1.642534332E0,8.882621511E-1,2.333780913E0
1.437993267E1,-1.535612147E0,-1.625674471E0,8.837364062E-1,2.404560705E0
1.438988267E1,-1.437611643E0,-1.436101307E0,6.271810486E-1,2.126610042E0
1.439983267E1,-8.384413156E-1,-1.221114975E0,3.806946695E-1,1.529390092E0
1.440978267E1,-2.011190023E-1,-9.232355905E-1,1.928563019E-1,9.643683745E-1
1.441973267E1,3.596579956E-1,-8.221536040E-1,1.326538812E-1,9.071314539E-1
1.442968167E1,7.243522710E-1,-1.146129697E0,3.921626674E-1,1.411414557E0
1.443963167E1,3.824450335E-1,-1.538405362E0,7.052003740E-1,1.735010901E0
1.444958167E1,-3.157466485E-1,-1.820149355E0,8.107807696E-1,2.017425358E0
1.445953167E1,-5.068199151E-1,-2.199618448E0,3.729944712E-1,2.287862019E0
1.446948167E1,-7.643089268E-1,-2.359548567E0,-2.713289326E-1,2.495046486E0
1.447943167E1,-1.242015555E0,-2.045104605E0,-8.831606747E-1,2.550495689E0
1.448938167E1,-1.450992704E0,-1.851768174E0,-5.836474317E-1,2.423854269E0
1.449933067E1,-1.035315312E0,-5.277001029E-1,-1.134724264E0,1.624174975E0
1.450928067E1,-4.315860571E-1,2.302960968E-1,-5.590974583E-1,7.428948679E-1
1.451923067E1,-1.552648083E-1,1.432485974E-1,-9.752936438E-2,2.326785299E-1
1.452918067E1,-5.032940075E-1,-6.633449811E-1,6.719649464E-1,1.069985192E0
1.453913067E1,-1.528150515E0,-8.116724700E-1,9.425302327E-1,1.970385606E0
1.454908067E1,-2.728899053E0,-4.472482628E-1,3.727393864E-1,2.790314624E0
1.455903067E1,-3.015668728E0,-4.577796829E-1,3.458990586E-1,3.069766486E0
1.456897967E1,-2.419142366E0,-1.567112267E-1,-1.836265451E-1,2.431157523E0
1.457892967E1,-2.096223449E0,6.446999645E-1,-7.416304278E-1,2.315125587E0
1.458887967E1,-1.678927987E0,1.353442728E0,-1.338150505E0,2.537962407E0
1.459882967E1,-1.293230001E0,1.219645570E0,-7.270033255E-1,1.920550179E0
1.460877967E1,-9.568410006E-1,-2.607513195E-1,1.026172168E0,1.427082783E0
1.461872967E1,-5.011343384E-1,-1.286206765E0,1.934282911E0,2.376323599E0
1.462867967E1,-8.104542026E-1,-1.464574324E0,1.735442496E0,2.411135546E0
1.463862967E1,-2.122252037E0,-6.145435345E-1,4.872670452E-1,2.262531025E0
1.464857867E1,-3.152530412E0,3.587453914E-1,-8.552437283E-1,3.286120523E0
1.465852867E1,-2.687366281E0,7.177059603E-1,-1.097732293E0,2.990326999E0
1.466847867E1,-1.504506860E0,7.237110507E-1,-5.698868868E-1,1.764105904E0
1.467842867E1,-8.145340242E-1,9.682994968E-1,3.515661800E-1,1.313266299E0
1.468837867E1,-5.374683883E-1,1.048934355E0,1.184632443E0,1.671074377E0
1.469832867E1,-4.497105253E-1,4.830630434E-1,1.877318752E0,1.989953556E0
1.470827867E1,-7.916286533E-1,-1.097241712E-1,2.017090595E0,2.169647387E0
1.471822767E1,-1.521797808E0,-3.981854457E-1,1.371121784E0,2.086718755E0
1.472817767E1,-2.133050968E0,-7.710302281E-1,5.143137798E-1,2.325706926E0
1.473812767E1,-2.353774295E0,-8.053475368E-1,-4.668922761E-1,2.531170971E0
1.474807767E1,-2.276908406E0,-2.383330947E-1,-1.080729467E0,2.531618205E0
1.475802767E1,-1.457137396E0,-1.111947459E-1,-7.875696623E-1,1.660084226E0
1.476797767E1,-4.279048694E-1,-2.911416382E-1,8.960214794E-2,5.252566760E-1
1.477792767E1,7.574801555E-2,-2.578130937E-1,8.958823156E-1,9.353130367E-1
1.478787767E1,-8.764344946E-2,-8.733342826E-2,1.239400096E0,1.245560556E0
1.479782667E1,-9.229533892E-1,5.597627252E-1,8.394052291E-1,1.367398408E0
1.480777667E1,-1.811320790E0,7.185198927E-1,1.504564601E-1,1.954428558E0
1.481772667E1,-2.225751117E0,2.167492676E-1,-3.387596083E-1,2.261792729E0
1.482767667E1,-2.309664070E0,-5.713665247E-2,-5.310412019E-1,2.370615420E0
1.483762667E1,-1.533390351E0,-9.892611802E-2,-1.799884075E-1,1.547083764E0
1.484757667E1,-3.218534075E-1,-2.742917168E-1,4.360941142E-1,6.074566966E-1
1.485752667E1,2.487254973E-1,1.229248452E-1,1.052217566E0,1.088180453E0
1.486747567E1,1.694701436E-1,7.323280925E-1,1.011418034E0,1.260155151E0
1.487742567E1,-3.750432259E-1,1.277948742E0,8.162321287E-1,1.562064434E0
1.488737567E1,-1.002497742E0,1.466910287E0,1.299707401E-1,1.781493728E0
1.489732567E1,-1.540092283E0,1.066246791E0,-4.847473338E-1,1.934876337E0
1.490727567E1,-1.736335804E0,6.021684873E-1,-5.962569523E-1,1.932095046E0
1.491722567E1,-1.160002289E0,7.080808586E-1,-3.724243677E-1,1.409142904E0
1.492717567E1,-2.329464935E-1,7.926842219E-1,7.581189913E-1,1.121319200E0
1.493712567E1,6.796565200E-1,1.281452394E0,9.202938563E-1,1.717845745E0
1.494707467E1,1.257938108E0,2.088068776E0,1.269259195E0,2.748355581E0
1.495702467E1,1.052295334E0,1.817252060E0,1.580811124E0,2.628439523E0
1.496697467E1,2.241178557E-1,2.027054250E0,1.292748045E0,2.414616999E0
1.497692467E1,-7.888157771E-1,1.715839705E0,9.276297730E-1,2.104004092E0
1.498687467E1,-1.556092312E0,1.396237915E0,4.681269157E-1,2.142439359E0
1.499682467E1,-1.922078018E0,9.654975110E-1,2.372285557E-1,2.163988618E0
1.500677467E1,-1.894467466E0,1.296663340E0,2.480318713E-1,2.309082633E0
1.501672367E1,-6.967235924E-1,1.765498939E0,5.670922101E-1,1.980909852E0
1.502667367E1,6.693580384E-1,1.934518554E0,1.245576217E0,2.396218340E0
1.503662367E1,1.347486169E0,2.388225651E0,1.657419589E0,3.204119291E0
1.504657367E1,1.397762722E0,2.462644334E0,1.767768828E0,3.338167817E0
1.505652367E1,8.688210361E-1,2.093400267E0,1.409046240E0,2.668817337E0
1.506647367E1,4.006431766E-2,1.506381916E0,7.146385109E-1,1.667782908E0
1.507642367E1,-1.102532784E0,1.088086141E0,-1.061117613E-1,1.552665352E0
1.508637367E1,-2.162910798E0,7.142917711E-1,-7.682346743E-1,2.403867793E0
1.509632267E1,-2.173454204E0,7.872053808E-1,-1.172621677E0,2.592033389E0
1.510627267E1,-1.025850205E0,1.051656234E0,-9.479833460E-1,1.748434128E0
1.511622267E1,8.853495799E-2,1.200634518E0,-1.433526778E-1,1.212399140E0
1.512617267E1,6.945191190E-1,1.701255580E0,5.793427116E-1,1.926723990E0
1.513612642E1,9.309365927E-1,2.056728285E0,1.131686490E0,2.525368981E0
1.514607642E1,6.999642655E-1,2.092431968E0,1.464576078E0,2.648245571E0
1.515602642E1,6.927123293E-3,2.084505483E0,1.300197397E0,2.456771126E0
1.516597642E1,-7.288666139E-1,1.692457275E0,1.008074012E0,2.100445520E0
1.517592542E1,-1.118414553E0,1.224143248E0,6.901872092E-1,1.796033459E0
1.518587542E1,-9.636485483E-1,1.081654789E0,3.827879727E-1,1.498373198E0
1.519582542E1,-4.848328494E-2,1.183067143E0,2.690876949E-1,1.214251490E0
1.520577542E1,1.026849860E0,1.219841452E0,6.451642334E-1,1.720078687E0
1.521572542E1,1.661657359E0,1.538550373E0,1.148395493E0,2.539105086E0
1.522567542E1,1.728574064E0,1.897613853E0,1.439353529E0,2.942897417E0
1.523562542E1,1.460184088E0,1.910165486E0,1.621058094E0,2.899775698E0
1.524557542E1,1.097805456E0,1.719709393E0,1.530684114E0,2.550602100E0
1.525552442E1,5.623890752E-1,1.689138980E0,1.280145541E0,2.192770980E0
1.526547442E1,2.641657280E-1,1.492426366E0,1.298069596E0,1.995521151E0
1.527542442E1,3.880748789E-1,1.247828565E0,1.449103761E0,1.951302116E0
1.528537442E1,7.355454498E-1,1.111248132E0,1.518427180E0,2.020277362E0
1.529532442E1,9.307312093E-1,1.060658607E0,1.510783700E0,2.067298878E0
1.530527442E1,7.958224956E-1,1.163404711E0,1.423305845E0,2.003158380E0
1.531522442E1,4.431360622E-1,1.258476929E0,1.272576320E0,1.843796150E0
1.532517442E1,1.037496324E-1,1.070121741E0,1.206149611E0,1.615772698E0
1.533512342E1,-4.112799928E-2,7.437500435E-1,1.085561898E0,1.316548622E0
1.534507342E1,-2.713615309E-1,6.271360981E-1,8.992082119E-1,1.129385751E0
1.535502342E1,-2.805723573E-1,6.693793076E-1,7.400978726E-1,1.036597495E0
1.536497342E1,1.536328138E-1,5.283462203E-1,7.844601130E-1,9.581912330E-1
1.537492342E1,8.315822393E-1,4.690694869E-1,7.408007079E-1,1.208445652E0
1.538487342E1,1.288745187E0,5.745778155E-1,6.765737218E-1,1.564850096E0
1.539482342E1,1.475420909E0,6.259812731E-1,6.055189419E-1,1.713292912E0
1.540477342E1,1.340149814E0,8.233201236E-1,5.514737123E-1,1.666727574E0
1.541472242E1,1.056070151E0,9.036380625E-1,6.519592828E-1,1.535218817E0
1.542467242E1,6.712828687E-1,1.047130489E0,9.609676731E-1,1.571802093E0
1.543462242E1,7.810592262E-1,1.166561038E0,1.407844053E0,1.988200957E0
1.544457242E1,1.572236182E0,1.047213519E0,1.927188485E0,2.698636364E0
1.545452242E1,2.290559316E0,9.878461540E-1,2.251166916E0,3.360097393E0
1.546447242E1,2.597581115E0,9.955071759E-1,2.258820337E0,3.583396643E0
1.547442242E1,2.539785189E0,8.689120334E-1,2.019868022E0,3.359372524E0
1.548437142E1,2.140396094E0,9.058488947E-1,1.659436294E0,2.855798745E0
1.549432142E1,1.927832994E0,7.010852498E-1,1.268728852E0,2.411997819E0
1.550427142E1,1.843228023E0,3.746463096E-1,1.064147640E0,2.161078342E0
1.551422142E1,1.765547324E0,3.484712487E-1,9.450410271E-1,2.032656417E0
1.552417142E1,1.824678316E0,9.309468985E-2,1.157630878E0,2.162920902E0
1.553412142E1,1.799750174E0,8.361226022E-2,1.400428322E0,2.281948988E0
1.554407142E1,1.847546192E0,1.054562885E-1,1.560922112E0,2.420955555E0
1.555402142E1,1.852294277E0,4.697360694E-2,1.780953714E0,2.570018821E0
1.556397142E1,1.598149580E0,3.671466708E-2,1.870433655E0,2.460478024E0
1.557392042E1,1.310502092E0,-4.026977420E-2,1.707233773E0,2.152599485E0
1.558387042E1,1.208593455E0,-1.214490080E-1,1.231409291E0,1.729686920E0
1.559382042E1,1.415207159E0,-3.231270772E-1,7.707884458E-1,1.643574531E0
1.560377042E1,1.890350734E0,-5.966896462E-1,4.091118452E-1,2.024064459E0
1.561372042E1,2.265732915E0,-7.728522205E-1,2.130927113E-1,2.403384011E0
1.562367042E1,2.535647991E0,-8.165011007E-1,1.941532874E-1,2.670932474E0
1.563362042E1,2.446339958E0,-7.323187369E-1,5.330415344E-1,2.608640106E0
1.564357042E1,1.897422356E0,-4.013885504E-1,8.486648798E-1,2.116968692E0
1.565351942E1,1.318586014E0,-1.438327342E-1,9.950738972E-1,1.658170375E0
1.566346942E1,1.028340461E0,-3.375948429E-2,1.118466227E0,1.519733697E0
1.567341942E1,1.010554108E0,-1.510639858E-1,1.225198378E0,1.595352939E0
1.568336942E1,1.153512099E0,-3.141235346E-1,1.215856282E0,1.705159892E0
1.569331942E1,1.495327755E0,-5.797338903E-1,1.105502073E0,1.947878669E0
1.570326942E1,1.711235608E0,-9.012015277E-1,9.086181360E-1,2.136838416E0
1.571321942E1,1.478549462E0,-9.253248006E-1,6.110442683E-1,1.848163844E0
1.572316942E1,1.183147542E0,-9.951493263E-1,2.378768657E-1,1.564207688E0
1.573311842E1,1.058573490E0,-1.207588611E0,-1.267074090E-1,1.610870217E0
1.574306842E1,1.271603343E0,-1.334807652E0,-4.481861562E-1,1.897249947E0
1.575301842E1,1.603579305E0,-1.502190047E0,-5.091568279E-1,2.255500432E0
1.576296842E1,1.803582439E0,-1.481766307E0,-2.913445365E-1,2.352322818E0
1.577291842E1,1.810597928E0,-1.337538301E0,9.345824048E-2,2.252999780E0
1.578286842E1,1.585885338E0,-1.070419949E0,6.840685366E-1,2.031940189E0
1.579281842E1,1.107310325E0,-6.550284863E-1,1.291753726E0,1.823136353E0
1.580276842E1,5.351555952E-1,-3.326077527E-1,1.715283051E0,1.827352011E0
1.581271742E1,1.453056479E-1,-2.429067868E-1,1.876360832E0,1.897589895E0
1.582266742E1,2.099969029E-1,-5.209126550E-1,1.730515486E0,1.819376965E0
1.583261742E1,5.525726965E-1,-9.897453296E-1,1.454517698E0,1.844059146E0
1.584256742E1,9.605317631E-1,-1.383416140E0,1.197281066E0,2.066384145E0
1.585251742E1,1.138030719E0,-1.789376628E0,8.137089821E-1,2.271366316E0
1.586246742E1,8.830707738E-1,-1.990336075E0,2.807089629E-1,2.195461046E0
1.587241742E1,6.569627452E-1,-2.013941284E0,-4.520915480E-1,2.166090098E0
1.588236742E1,5.258374724E-1,-2.195655790E0,-1.037459779E0,2.484699617E0
1.589231642E1,4.409417483E-1,-2.323784657E0,-1.433081805E0,2.765524944E0
1.590226642E1,4.122722653E-1,-2.222047783E0,-1.571332203E0,2.752553298E0
1.591221642E1,5.878507027E-1,-2.107731208E0,-1.318524910E0,2.554722536E0
1.592216642E1,9.587086013E-1,-1.984710469E0,-7.918322825E-1,2.342049570E0
