"Time (s)","Linear Acceleration x (m/s^2)","Linear Acceleration y (m/s^2)","Linear Acceleration z (m/s^2)","Absolute acceleration (m/s^2)"
3.221666848E-4,4.883510459E-2,3.464366324E-2,-9.530376792E-3,6.062902708E-2
1.027216669E-2,8.755005847E-2,3.164587115E-2,-6.821186364E-2,1.154094114E-1
2.021825002E-2,6.801096610E-2,3.526757029E-2,-6.356917441E-2,9.955065524E-2
3.016725002E-2,6.264357844E-2,4.057943908E-2,3.911436439E-2,8.426649570E-2
4.011725000E-2,7.888715266E-2,3.378835949E-2,-4.575738609E-2,9.725520281E-2
5.006725001E-2,6.954916754E-2,3.411175619E-2,-5.233491898E-2,9.348605436E-2
6.001625000E-2,5.065446574E-2,4.438838388E-2,5.843005657E-2,8.916431480E-2
6.996625001E-2,4.448241899E-2,5.303420029E-2,-2.061143517E-3,6.924998420E-2
7.991625002E-2,7.865771340E-2,2.749816700E-2,-5.385285616E-2,9.921348287E-2
8.986525002E-2,8.359252587E-2,2.892392831E-2,-8.182827473E-2,1.204996704E-1
9.981525003E-2,5.366834910E-2,3.681819934E-2,-1.161666334E-2,6.611216503E-2
1.097642500E-1,5.251620093E-2,3.701702752E-2,6.920296669E-2,9.443125693E-2
1.197142500E-1,6.655848118E-2,2.508222997E-2,-4.037911713E-2,8.179011418E-2
1.296642500E-1,8.849163378E-2,2.494316673E-2,-5.893584073E-2,1.092078941E-1
1.396132500E-1,6.255801723E-2,4.484204559E-2,-9.981781840E-3,7.761411303E-2
1.495632500E-1,4.910676258E-2,3.771000937E-2,2.289769650E-3,6.195774352E-2
1.595132500E-1,6.370473845E-2,3.153305186E-2,1.890053988E-2,7.355173328E-2
1.694622500E-1,7.610867456E-2,3.045007900E-2,-2.750588715E-2,8.646566649E-2
1.794122500E-1,6.569520375E-2,4.093539291E-2,-2.331460297E-2,8.084019359E-2
1.893622500E-1,6.041574360E-2,3.836143030E-2,-5.801607370E-3,7.180055750E-2
1.993112500E-1,6.108630046E-2,4.279084691E-2,-3.289468110E-2,8.151473933E-2
2.092612500E-1,7.684987309E-2,3.475704212E-2,-3.856238723E-3,8.443237263E-2
2.192112500E-1,5.791699081E-2,3.541005277E-2,2.425425053E-3,6.792740499E-2
2.291602500E-1,6.100226501E-2,3.289960555E-2,-1.179792702E-2,7.030541561E-2
2.391102500E-1,6.421823362E-2,4.494747363E-2,-2.032784522E-2,8.097825761E-2
2.490602500E-1,6.324311905E-2,5.195670462E-2,-2.391862035E-2,8.527186911E-2
2.590092500E-1,6.734593668E-2,3.138566092E-2,3.473246098E-3,7.438143812E-2
2.689592500E-1,6.214936995E-2,3.059422657E-2,6.313823462E-3,6.955871801E-2
2.789092500E-1,7.355322205E-2,2.530921614E-2,-2.811750591E-2,8.271171038E-2
2.888582500E-1,6.184646591E-2,3.219278453E-2,-1.988404155E-2,7.250335047E-2
2.988082500E-1,5.756104155E-2,2.905188869E-2,-9.403492212E-3,6.515912374E-2
3.087582500E-1,6.153431595E-2,2.739505957E-2,-1.180085063E-2,6.838290287E-2
3.187072500E-1,5.860871642E-2,3.253746419E-2,-1.150322735E-2,6.801464883E-2
3.286572500E-1,5.751701385E-2,2.971685643E-2,-3.051311016E-2,7.157058285E-2
3.386062500E-1,6.371233069E-2,3.075648681E-2,-1.434614360E-2,7.218749476E-2
3.485562500E-1,6.197227241E-2,4.168729459E-2,-1.509575665E-2,7.619891696E-2
3.585062500E-1,6.177302853E-2,3.755175767E-2,-4.767819643E-3,7.244842070E-2
3.684552500E-1,6.213049441E-2,4.615581902E-2,-5.667121410E-3,7.760589043E-2
3.784052500E-1,5.964895436E-2,4.169952806E-2,-1.674525619E-2,7.468100161E-2
3.883552500E-1,6.269126066E-2,4.275734876E-2,-9.860744476E-3,7.652201851E-2
3.983042500E-1,6.600432046E-2,2.793430990E-2,-1.255631089E-2,7.276370614E-2
4.082542500E-1,7.070134311E-2,3.229357591E-2,-1.540156603E-2,7.923864713E-2
4.182042500E-1,6.002160472E-2,3.571870581E-2,1.637220383E-4,6.984587162E-2
4.281532500E-1,6.081774881E-2,3.903518943E-2,-1.615293324E-2,7.405040065E-2
4.381032500E-1,6.613393678E-2,2.993346836E-2,-8.070327044E-3,7.303999111E-2
4.480532500E-1,6.361907674E-2,2.431349013E-2,-7.022505999E-3,6.846786340E-2
4.580022500E-1,6.284872435E-2,3.362103319E-2,-1.360939443E-2,7.256412090E-2
4.679522500E-1,6.899275929E-2,3.116624872E-2,-1.186984777E-3,7.571489171E-2
4.779022500E-1,7.185003776E-2,3.405501079E-2,-2.663523674E-2,8.385468098E-2
4.878512500E-1,6.430110876E-2,2.313655525E-2,-8.822863698E-3,6.890410511E-2
4.978012500E-1,6.307071755E-2,2.677021149E-2,-1.481099725E-2,7.009939568E-2
5.077512500E-1,5.611651434E-2,3.552374229E-2,-1.286562860E-2,6.765000995E-2
5.177002500E-1,5.255932415E-2,3.545048535E-2,-6.727806330E-3,6.375329674E-2
5.276502500E-1,5.408415922E-2,3.289168440E-2,-1.466247797E-2,6.497651454E-2
5.376002500E-1,6.805744233E-2,3.628350802E-2,-2.469279170E-2,8.098174098E-2
5.475492500E-1,6.295472341E-2,3.495078367E-2,-1.376726925E-2,7.331024609E-2
5.574992500E-1,6.101142869E-2,4.136872184E-2,-2.514536619E-2,7.788488312E-2
5.674492500E-1,6.513007949E-2,3.318215397E-2,-3.142878413E-3,7.316324406E-2
5.773982500E-1,6.200412146E-2,3.566713383E-2,-1.736330688E-2,7.360801545E-2
5.873482500E-1,5.562875605E-2,2.316628469E-2,-1.811291993E-2,6.292307299E-2
5.972982500E-1,6.282355391E-2,3.013207270E-2,-9.578908682E-3,7.033133173E-2
6.072472500E-1,6.494882494E-2,4.388534518E-2,-1.032852173E-2,7.906296063E-2
6.171972500E-1,5.571105561E-2,2.352912041E-2,-8.682530522E-3,6.109605193E-2
6.271462500E-1,6.654193539E-2,2.485449462E-2,-4.643273950E-3,7.118381179E-2
6.370962500E-1,6.010923986E-2,2.141778905E-2,-2.200716555E-2,6.749931659E-2
6.470462500E-1,5.846862079E-2,3.402368708E-2,-1.856549442E-2,7.014890221E-2
6.569952500E-1,6.308347179E-2,2.850320744E-2,-1.183008671E-2,7.022754587E-2
6.669452500E-1,5.766667516E-2,3.237513771E-2,-9.735614061E-3,6.684592095E-2
6.768952500E-1,5.527551114E-2,3.884856275E-2,-3.899508119E-3,6.767421313E-2
6.868442500E-1,5.799164331E-2,3.706573300E-2,-5.098187327E-3,6.901369987E-2
6.967942500E-1,5.724416815E-2,3.665302464E-2,-1.258320808E-2,6.912796921E-2
7.067442500E-1,5.551645297E-2,4.337021462E-2,-1.258437753E-2,7.156408753E-2
7.166932500E-1,6.072380964E-2,3.461921914E-2,-7.047064304E-3,7.025334516E-2
7.266432500E-1,6.259554905E-2,3.018917898E-2,-1.183768809E-2,7.049624208E-2
7.365932500E-1,5.959445648E-2,4.495416138E-2,-4.055628777E-3,7.475843761E-2
7.465422500E-1,5.454828196E-2,3.647836876E-2,-6.900299191E-3,6.598333564E-2
7.564922500E-1,5.938907303E-2,2.805129990E-2,-2.127041638E-2,6.903888784E-2
7.664422500E-1,5.472474910E-2,2.331497299E-2,-1.827664196E-2,6.222878571E-2
7.763912500E-1,5.896569807E-2,2.540479299E-2,-4.506449103E-3,6.436353890E-2
7.863412500E-1,6.536426961E-2,3.172829177E-2,-2.142302871E-2,7.575036897E-2
7.962912500E-1,6.216356772E-2,3.475358861E-2,-4.060891271E-3,7.133450715E-2
8.062402500E-1,6.053570288E-2,2.206280089E-2,-1.034781754E-2,6.525653863E-2
8.161902500E-1,6.316820160E-2,3.485739724E-2,-2.277139664E-2,7.565577533E-2
8.261402500E-1,5.691847824E-2,2.711652197E-2,-9.149723053E-3,6.370821266E-2
8.360892500E-1,5.602375374E-2,3.215087644E-2,-1.393976212E-2,6.608068407E-2
8.460392500E-1,5.326347509E-2,3.855203583E-2,-1.618567765E-2,6.771435156E-2
8.559892500E-1,5.526763567E-2,3.210215040E-2,-1.513844132E-2,6.568281372E-2
8.659382500E-1,5.808877104E-2,2.748437351E-2,-1.319424212E-2,6.560323264E-2
8.758882500E-1,5.651583348E-2,3.642127390E-2,-9.154985547E-3,6.785545216E-2
8.858382500E-1,5.297973895E-2,3.914570181E-2,-1.828658223E-2,6.836400953E-2
8.957872500E-1,6.134046248E-2,4.770619454E-2,-2.427413106E-2,8.141109736E-2
9.057372500E-1,5.783847366E-2,3.794668912E-2,-1.768724263E-2,7.140083195E-2
9.156872500E-1,5.755066275E-2,3.236819186E-2,-8.407711387E-3,6.656176258E-2
9.256362500E-1,6.142305440E-2,3.223747461E-2,-3.170360327E-3,6.944132463E-2
9.355862500E-1,5.458178468E-2,3.198276899E-2,-1.065596581E-2,6.415308518E-2
9.455362500E-1,6.031477863E-2,2.578473181E-2,-1.125589013E-2,6.655388778E-2
9.554852500E-1,5.600706177E-2,3.707679474E-2,-1.978931665E-2,7.002211600E-2
9.654352500E-1,5.747115889E-2,3.212524005E-2,-1.066005886E-2,6.669784110E-2
9.753852500E-1,6.005662406E-2,3.013582771E-2,-1.829535306E-2,6.963968803E-2
9.853342500E-1,5.753467427E-2,2.498968864E-2,-1.799597561E-2,6.525778436E-2
9.952842500E-1,5.556577058E-2,2.822465842E-2,-1.979224026E-2,6.539051137E-2
1.005234250E0,5.258496054E-2,3.117007910E-2,-1.545302153E-2,6.305194509E-2
1.015183250E0,4.617231913E-2,4.463088802E-2,-6.772245169E-3,6.457292407E-2
1.025132750E0,6.025398586E-2,3.452538732E-2,-2.248897612E-2,7.299520004E-2
1.035082750E0,5.399337206E-2,3.573700349E-2,-6.922518611E-3,6.511788471E-2
1.045031750E0,5.629728466E-2,3.424967511E-2,-2.967578888E-2,7.227085824E-2
1.054981750E0,6.461044475E-2,3.744514877E-2,-2.099325836E-2,7.757168061E-2
1.064931750E0,5.725311256E-2,3.448704237E-2,-1.605353057E-2,6.873856875E-2
1.074880750E0,5.268179591E-2,3.059859143E-2,-1.829827666E-2,6.361188840E-2
1.084830750E0,5.843268782E-2,2.946304159E-2,-1.560504913E-2,6.727531036E-2
1.094780750E0,5.637318883E-2,3.071097217E-2,-1.051504791E-2,6.505126027E-2
1.104729750E0,5.900521246E-2,2.937854019E-2,-1.350940704E-2,6.728460299E-2
1.114679750E0,5.664993572E-2,3.266835502E-2,-1.440753937E-2,6.696277942E-2
1.124629750E0,5.351269439E-2,3.046088722E-2,-4.977149963E-3,6.177577302E-2
1.134578750E0,5.438767539E-2,3.303386082E-2,-1.126407623E-2,6.462301918E-2
1.144528750E0,5.506998151E-2,3.045120048E-2,-1.380936921E-2,6.442574914E-2
1.154478750E0,5.757703917E-2,3.520281009E-2,-1.141434968E-2,6.844443481E-2
1.164427750E0,5.890112288E-2,3.585852964E-2,-6.925442219E-3,6.930467643E-2
1.174377750E0,5.715862521E-2,2.891661929E-2,-8.274394870E-3,6.458904642E-2
1.184327750E0,5.601670967E-2,4.055796884E-2,-1.052089512E-2,6.995362631E-2
1.194276750E0,5.528500373E-2,3.299441267E-2,-7.827667594E-3,6.485626634E-2
1.204226750E0,6.153237906E-2,4.265375254E-2,-5.883468390E-3,7.510120824E-2
1.214176750E0,5.555952136E-2,2.959297312E-2,-1.696043372E-2,6.519402415E-2
1.224125750E0,5.491099206E-2,3.012360109E-2,-1.381755531E-2,6.413714389E-2
1.234075750E0,5.600046538E-2,3.785552738E-2,-4.239816070E-3,6.772790500E-2
1.244025750E0,5.440803101E-2,3.243927436E-2,-8.731062412E-3,6.394350483E-2
1.253974750E0,5.455513417E-2,3.073159503E-2,-1.921102703E-2,6.549623773E-2
1.263924750E0,5.403246618E-2,2.833226546E-2,-1.621900678E-2,6.312908084E-2
1.273874750E0,5.035438481E-2,3.137978629E-2,-5.292314887E-3,5.956730356E-2
1.283823750E0,5.908081513E-2,3.766280909E-2,-7.688503861E-3,7.048505513E-2
1.293773750E0,6.025513703E-2,3.397705553E-2,-1.741885543E-2,7.133399166E-2
1.303723750E0,5.971179365E-2,3.631572024E-2,-5.443173051E-3,7.009962889E-2
1.313672750E0,4.878366737E-2,2.565252764E-2,-7.538815141E-3,5.563031646E-2
1.323622750E0,5.678147980E-2,2.748569142E-2,-1.307671309E-2,6.442515119E-2
1.333572750E0,5.486755821E-2,2.535297432E-2,-1.517235518E-2,6.231711332E-2
1.343521750E0,4.796799906E-2,3.559373757E-2,-5.144965053E-3,5.995259588E-2
1.353471750E0,4.790596375E-2,4.222342031E-2,2.438288927E-4,6.385810863E-2
1.363421750E0,5.122132589E-2,3.297192373E-2,-1.307963669E-2,6.230448520E-2
1.373370750E0,5.621175086E-2,3.344468025E-2,-1.308080614E-2,6.670393587E-2
1.383320750E0,5.741036612E-2,4.325970224E-2,-1.128571093E-2,7.276482149E-2
1.393270750E0,4.881866843E-2,4.230596198E-2,-1.442975879E-2,6.619119840E-2
1.403219750E0,5.634907820E-2,2.909346787E-2,-1.443092823E-2,6.503768274E-2
1.413169750E0,5.872410757E-2,3.669900522E-2,-8.445133567E-3,6.976143687E-2
1.423119750E0,4.615616620E-2,2.800861065E-2,-8.446303010E-3,5.464626230E-2
1.433069750E0,5.867616953E-2,2.792674050E-2,-3.056339622E-3,6.505487620E-2
1.443018750E0,5.191137956E-2,2.765816144E-2,-8.296029568E-3,5.940193035E-2
1.452968750E0,5.580918834E-2,2.727564847E-2,-1.802813530E-2,6.468106496E-2
1.462918750E0,5.108464723E-2,2.467533000E-2,-8.447472453E-3,5.735741350E-2
1.472867750E0,5.591844904E-2,3.037824961E-2,-8.746849895E-3,6.423564724E-2
1.482817750E0,5.490223037E-2,3.029574449E-2,-1.488525689E-2,6.444887824E-2
1.492767750E0,5.088712097E-2,3.235648601E-2,-2.910159230E-3,6.037309247E-2
1.502716750E0,5.827750820E-2,3.917408821E-2,3.974937201E-3,7.033261885E-2
1.512666750E0,4.991849315E-2,3.266397189E-2,-6.054207087E-3,5.996202500E-2
1.522616750E0,5.264324997E-2,4.079257010E-2,-1.533549249E-2,6.834122381E-2
1.532565750E0,5.407855868E-2,3.654007059E-2,-1.533607721E-2,6.704373597E-2
1.542515750E0,5.631040435E-2,3.921911177E-2,-1.818016291E-2,7.098956747E-2
1.552465750E0,5.706174416E-2,4.153433965E-2,-1.877891779E-2,7.303281297E-2
1.562414750E0,5.555502632E-2,3.699638867E-2,-1.234230280E-2,6.787802415E-2
1.572364750E0,5.164384204E-2,3.134423248E-2,-3.062186837E-3,6.048904296E-2
1.582314750E0,5.667719836E-2,2.357460307E-2,-1.279195368E-2,6.270327586E-2
1.592263750E0,4.816727947E-2,2.477605514E-2,-8.601838946E-3,5.484461098E-2
1.602213750E0,4.897636053E-2,3.162104332E-2,-3.663280606E-3,5.841227522E-2
1.612163750E0,6.019786173E-2,1.765770277E-2,-1.069981992E-2,6.364010661E-2
1.622112750E0,5.346286515E-2,2.145883148E-2,-1.459055722E-2,5.942763464E-2
1.632062750E0,4.794840175E-2,2.778591168E-2,-1.084775448E-2,5.646928276E-2
1.642012750E0,5.340642124E-2,3.246822265E-2,-1.504137754E-2,6.428587987E-2
1.651961750E0,5.445955046E-2,3.578755906E-2,-2.019628286E-3,6.519716956E-2
1.661911750E0,5.349145255E-2,3.099229405E-2,-9.953130484E-3,6.261727072E-2
1.671861750E0,5.667044666E-2,2.634348809E-2,-8.906478882E-3,6.312562281E-2
1.681810750E0,4.310056661E-2,3.195095419E-2,-1.354624450E-2,5.533554966E-2
1.691760750E0,5.097835581E-2,3.455950445E-2,-1.878593445E-2,6.438993277E-2
1.701710750E0,4.710067425E-2,2.035567202E-2,-1.219963074E-2,5.274142479E-2
1.711659750E0,5.101681039E-2,3.993732801E-2,-1.324803650E-2,6.613029247E-2
1.721609750E0,5.954079000E-2,3.819226305E-2,-1.444554627E-2,7.219714979E-2
1.731559750E0,4.855020815E-2,3.143990755E-2,-1.190142274E-2,5.905280993E-2
1.741508750E0,4.620544726E-2,3.125001922E-2,-1.160146058E-2,5.697456402E-2
1.751458750E0,4.710964607E-2,3.074616739E-2,-1.130208313E-2,5.737928760E-2
1.761408750E0,5.203153985E-2,3.198179826E-2,-1.235048890E-2,6.231092308E-2
1.771357750E0,5.662782594E-2,3.167702813E-2,-7.261072397E-3,6.529064216E-2
1.781307750E0,4.969631723E-2,3.768357584E-2,-1.175231874E-2,6.346568230E-2
1.791257750E0,5.087941909E-2,4.051363507E-2,1.571731567E-3,6.505797610E-2
1.801207750E0,5.979288722E-2,2.579081201E-2,-3.069203496E-3,6.519030109E-2
1.811156750E0,5.871967647E-2,2.668892149E-2,-5.262494087E-4,6.450252610E-2
1.821106750E0,5.243641385E-2,2.478218329E-2,-8.310062885E-3,5.859002689E-2
1.831056750E0,4.747847747E-2,3.341589642E-2,-1.324979067E-2,5.955153154E-2
1.841005750E0,4.870174239E-2,3.798855610E-2,-1.983667910E-2,6.487282902E-2
1.850955750E0,5.138389676E-2,2.429545969E-2,-3.672051430E-3,5.695663411E-2
1.860905750E0,5.696014878E-2,2.716234267E-2,-4.870145917E-3,6.329273047E-2
1.870854750E0,4.940605779E-2,4.566777751E-2,-1.534952581E-2,6.900806034E-2
1.880804750E0,4.596212086E-2,4.740583495E-2,-1.579332948E-3,6.604789197E-2
1.890754750E0,4.525832623E-2,3.397039290E-2,-1.041096747E-2,5.753861252E-2
1.900703750E0,4.595342313E-2,3.248599955E-2,-1.654820502E-2,5.865918814E-2
1.910653750E0,5.498696018E-2,2.623070078E-2,-1.086120307E-2,6.188360999E-2
1.920603750E0,4.926030681E-2,3.518266460E-2,-8.615872264E-3,6.114434536E-2
1.930552750E0,5.513696867E-2,2.313554798E-2,-7.867428660E-3,6.030949617E-2
1.940502750E0,5.314644855E-2,3.308899138E-2,-4.723965526E-3,6.278329551E-2
1.950452750E0,4.894466680E-2,2.973091031E-2,-8.166221380E-3,5.784630158E-2
1.960401750E0,5.947859938E-2,3.626209259E-2,-1.370528877E-2,7.099632444E-2
1.970351750E0,4.870600903E-2,2.587686657E-2,-9.962486029E-3,5.604586218E-2
1.980301750E0,4.656068388E-2,2.648659412E-2,-9.514004588E-3,5.440545226E-2
1.990250750E0,5.733976099E-2,2.312418931E-2,-8.168560266E-3,6.236426619E-2
2.000200750E0,4.925603103E-2,2.124255074E-2,-5.774710178E-3,5.395136544E-2
2.010150750E0,4.239615072E-2,4.010311942E-2,6.198048592E-5,5.835835522E-2
2.020099750E0,5.154961964E-2,3.791995182E-2,-7.723002434E-3,6.445875268E-2
2.030050000E0,4.775708816E-2,2.853308991E-2,-3.832849860E-3,5.576349547E-2
2.040000000E0,4.853976538E-2,3.105261630E-2,-9.073124528E-3,5.833262716E-2
2.049950000E0,4.993049822E-2,3.889513034E-2,-9.373671412E-3,6.398243144E-2
2.059899000E0,5.659559316E-2,2.986636243E-2,-6.679859161E-3,6.434035505E-2
2.069849000E0,5.144772277E-2,3.156903965E-2,1.404501200E-3,6.037752120E-2
2.079799000E0,5.280822367E-2,2.873120317E-2,-8.626397252E-3,6.073388883E-2
2.089748000E0,5.096876272E-2,4.161391203E-2,-1.890989542E-3,6.582634951E-2
2.099698000E0,5.374111039E-2,3.596632398E-2,-1.910402298E-2,6.742882989E-2
2.109648000E0,5.130852249E-2,3.298147114E-2,-1.371581376E-2,6.251772121E-2
2.119597000E0,5.027945822E-2,3.488369829E-2,-5.443757772E-4,6.119797930E-2
2.129547000E0,5.686773537E-2,2.276984347E-2,-9.825076461E-3,6.203980355E-2
2.139497000E0,4.819061352E-2,2.870168386E-2,-1.925663531E-2,5.930379323E-2
2.149446000E0,4.507048443E-2,3.365148896E-2,-9.526868463E-3,5.704851005E-2
2.159396000E0,5.054060035E-2,2.801734265E-2,-9.078387022E-3,5.849564842E-2
2.169346000E0,5.406763170E-2,2.449924886E-2,-7.880292535E-3,5.988005513E-2
2.179295000E0,5.651275456E-2,3.117908975E-2,-1.326850176E-2,6.589294503E-2
2.189245000E0,4.573474640E-2,3.805341908E-2,-1.551383257E-2,6.148502853E-2
2.199195000E0,4.648621411E-2,3.701152291E-2,-9.376595020E-3,6.015597613E-2
2.209144000E0,4.381030896E-2,2.974502128E-2,-4.288347960E-3,5.312720010E-2
2.219094000E0,4.618403183E-2,4.166378239E-2,-5.785819888E-3,6.246848222E-2
2.229044000E0,4.658951797E-2,4.025704280E-2,-1.716274738E-2,6.392004832E-2
2.238994000E0,3.998810286E-2,3.114680901E-2,-1.881049275E-2,5.406483810E-2
2.248943000E0,5.540454274E-2,3.735760727E-2,-5.938432217E-3,6.708590876E-2
2.258893000E0,4.870758047E-2,3.601978032E-2,-5.340846777E-3,6.081428791E-2
2.268843000E0,5.096575689E-2,3.085985005E-2,-4.144506454E-3,5.972449794E-2
2.278792000E0,5.059447696E-2,3.533195133E-2,-1.088108361E-2,6.266215656E-2
2.288742000E0,5.339870109E-2,3.330725698E-2,2.291523814E-3,6.297654903E-2
2.298692000E0,4.874634569E-2,2.489151252E-2,-9.984705448E-3,5.563710952E-2
2.308641000E0,4.732745485E-2,3.073385397E-2,1.091675162E-3,5.644155843E-2
2.318591000E0,5.320394313E-2,2.990472793E-2,-1.941626430E-2,6.404641783E-2
2.328541000E0,4.801033655E-2,2.934001709E-2,-2.031439662E-2,5.982059619E-2
2.338490000E0,4.520248532E-2,2.979974071E-2,-5.794590712E-3,5.445058776E-2
2.348440000E0,4.188604510E-2,2.296403042E-2,1.929581165E-4,4.776844879E-2
2.358390000E0,4.924021614E-2,2.963995641E-2,-2.652297020E-3,5.753399500E-2
2.368339000E0,4.321028413E-2,3.478856684E-2,-7.592024803E-3,5.599117679E-2
2.378289000E0,4.460838080E-2,4.062257144E-2,-1.956829190E-2,6.342727328E-2
2.388239000E0,4.652019192E-2,3.053201996E-2,-9.539147615E-3,5.645642422E-2
2.398189000E0,4.373879020E-2,3.349542769E-2,1.036711335E-2,5.605802782E-2
2.408138000E0,4.615003576E-2,2.560019734E-2,-1.882335663E-2,5.603137210E-2
2.418088000E0,5.467836424E-2,3.761427035E-2,-1.538051605E-2,6.812574494E-2
2.428038000E0,5.865179395E-2,2.848137174E-2,-1.403273284E-2,6.669437054E-2
2.437987000E0,5.107181990E-2,3.918549485E-2,-1.882452607E-2,6.706859605E-2
2.447937000E0,5.234896143E-2,3.515124724E-2,-9.095343947E-3,6.370831364E-2
2.457887000E0,5.110822795E-2,3.119003272E-2,-1.163946748E-2,6.099464164E-2
2.467836000E0,4.648266010E-2,2.745755626E-2,-1.253759980E-2,5.542333890E-2
2.477786000E0,5.328831662E-2,2.873181758E-2,-1.014316499E-2,6.138441029E-2
2.487736000E0,4.974989234E-2,2.034146740E-2,-1.568281710E-2,5.598908676E-2
2.497685000E0,4.677430825E-2,2.432822237E-2,-1.059281588E-2,5.377644526E-2
2.507635000E0,4.642270787E-2,3.124505822E-2,-1.553312838E-2,5.807408670E-2
2.517585000E0,4.942804880E-2,3.613060790E-2,-1.343748629E-2,6.268268400E-2
2.527534000E0,4.869517341E-2,3.059433621E-2,-7.750484347E-3,5.802846999E-2
2.537484000E0,4.791386663E-2,2.940594673E-2,-1.029694676E-2,5.715308768E-2
2.547434000E0,3.990034894E-2,2.988141444E-2,-3.262746334E-3,4.995580335E-2
2.557383000E0,4.635665260E-2,2.553649467E-2,-1.419002295E-2,5.479423831E-2
2.567333000E0,4.160660301E-2,3.041589106E-2,-6.107416749E-3,5.189929077E-2
2.577283000E0,5.355256509E-2,2.776148813E-2,-8.503021002E-3,6.091698300E-2
2.587233000E0,5.428729515E-2,2.642308103E-2,-8.653879166E-3,6.099327217E-2
2.597182000E0,5.042268760E-2,3.250500300E-2,-6.109170914E-3,6.030211119E-2
2.607132000E0,5.610795365E-2,2.422213195E-2,-1.389298439E-2,6.267239547E-2
2.617082000E0,4.418755487E-2,3.502445631E-2,-5.511585474E-3,5.665359758E-2
2.627031000E0,4.629354835E-2,2.483665148E-2,1.372926235E-3,5.255318071E-2
2.636981000E0,4.716259992E-2,2.809574102E-2,2.419577837E-3,5.495030347E-2
2.646931000E0,4.954682951E-2,2.669372945E-2,-1.254929423E-2,5.766219118E-2
2.656880000E0,4.306489860E-2,3.084708439E-2,-6.712018847E-3,5.339643531E-2
2.666830000E0,4.107990593E-2,1.845269341E-2,-6.862292290E-3,4.555383212E-2
2.676780000E0,4.836003659E-2,2.677997817E-2,-1.644237041E-2,5.767332065E-2
2.686729000E0,5.209953200E-2,2.751372607E-2,-8.358010054E-3,5.950817330E-2
2.696679000E0,4.851428431E-2,2.146707012E-2,-1.704171002E-2,5.572154666E-2
2.706629000E0,5.063898889E-2,2.703985721E-2,-1.973669171E-2,6.070418498E-2
2.716579000E0,4.651091860E-2,3.838339391E-2,-5.666536689E-3,6.056946520E-2
2.726528000E0,4.443168526E-2,3.242250016E-2,-7.763348222E-3,5.554874208E-2
2.736478000E0,4.949752104E-2,2.521432222E-2,-8.961442709E-3,5.626787795E-2
2.746428000E0,5.078712445E-2,3.040508970E-2,-1.060977280E-2,6.013625170E-2
2.756377000E0,4.506900435E-2,3.115247122E-2,-1.060977280E-2,5.580554538E-2
2.766327000E0,4.830212175E-2,3.562446743E-2,-1.345327377E-2,6.150762733E-2
2.776277000E0,4.779823794E-2,3.823989044E-2,-5.070705414E-3,6.142208743E-2
2.786226000E0,4.633501790E-2,3.546032284E-2,-1.809479356E-2,6.108837806E-2
2.796176000E0,4.625186867E-2,2.826551355E-2,-9.561951756E-3,5.504185256E-2
2.806126000E0,4.607988744E-2,2.555005290E-2,4.509957433E-3,5.288195293E-2
2.816075000E0,4.371234069E-2,2.374540115E-2,-3.724091649E-3,4.988468365E-2
2.826025000E0,4.195903480E-2,2.394477065E-2,-1.405319810E-2,5.031307007E-2
2.835975000E0,4.579732988E-2,1.914866967E-2,-1.016187608E-2,5.066883361E-2
2.845924000E0,4.240411755E-2,2.008066331E-2,-1.180845201E-2,4.838162629E-2
2.855874000E0,4.661595834E-2,2.802595587E-2,-3.425883651E-3,5.449989407E-2
2.865824000E0,4.592055081E-2,2.344225728E-2,-2.453140855E-2,5.709664105E-2
2.875774000E0,4.805612756E-2,3.085153604E-2,-1.345385849E-2,5.867039271E-2
2.885723000E0,4.174048598E-2,3.118911453E-2,-1.016129136E-2,5.308748324E-2
2.895673000E0,4.145164266E-2,3.324275945E-2,-5.371252298E-3,5.340571211E-2
2.905623000E0,4.901661496E-2,3.518720076E-2,-8.215337992E-3,6.089547945E-2
2.915572000E0,5.452504842E-2,2.746917760E-2,-1.031156480E-2,6.191821211E-2
2.925522000E0,4.806267827E-2,3.505646981E-2,-5.220978856E-3,5.971796830E-2
2.935472000E0,4.440610369E-2,3.125617478E-2,-2.198670030E-2,5.858554000E-2
2.945421000E0,4.179186839E-2,3.256599677E-2,-1.345502794E-2,5.466390204E-2
2.955371000E0,4.874068120E-2,2.353871807E-2,-1.180786729E-2,5.539991861E-2
2.965321000E0,4.646811515E-2,2.669622366E-2,-9.712809920E-3,5.446386655E-2
2.975271000E0,4.838563643E-2,2.739109443E-2,-8.964366317E-3,5.631875115E-2
2.985220000E0,4.486986098E-2,2.721543128E-2,-2.379816771E-3,5.253234862E-2
2.995170000E0,5.121590808E-2,3.266034936E-2,-9.117563367E-3,6.142391735E-2
3.005120000E0,5.025098045E-2,2.441330621E-2,-3.579665422E-3,5.598200212E-2
3.015069000E0,4.724210378E-2,2.471153934E-2,-1.884733021E-2,5.654819539E-2
3.025019375E0,4.398042639E-2,3.177670488E-2,-2.681533098E-3,5.432520132E-2
3.034969375E0,4.084247243E-2,2.515054189E-2,-1.480631948E-2,5.019845025E-2
3.044918375E0,4.541330486E-2,3.293388713E-2,-3.429391980E-3,5.620293506E-2
3.054868375E0,4.589192687E-2,3.522825918E-2,-7.172779441E-3,5.829706649E-2
3.064818375E0,5.011275776E-2,3.121359518E-2,-1.750188589E-2,6.157834866E-2
3.074767375E0,4.936086064E-2,3.637705890E-2,-5.975854397E-3,6.160759542E-2
3.084717375E0,5.259687424E-2,2.811956614E-2,-1.106585562E-2,6.065965991E-2
3.094667375E0,5.090822577E-2,2.828346177E-2,-7.922392488E-3,5.877385441E-2
3.104617375E0,4.990819657E-2,3.392411996E-2,6.098645926E-4,6.034936565E-2
3.114566375E0,4.561196401E-2,3.458895294E-2,-1.510686636E-2,5.920358382E-2
3.124516375E0,5.078061028E-2,2.813445370E-2,-1.031624258E-2,5.896306239E-2
3.134466375E0,4.653133817E-2,2.944647296E-2,-2.064534903E-2,5.880893332E-2
3.144415375E0,3.860570231E-2,2.795271949E-2,1.619678736E-4,4.766320395E-2
3.154365375E0,4.755714079E-2,2.684453052E-2,-4.479551911E-3,5.479394898E-2
3.164315375E0,5.009856912E-2,2.502482219E-2,-3.432315588E-3,5.610605265E-2
3.174264375E0,5.119631991E-2,1.570180228E-2,-1.645464957E-2,5.602111441E-2
3.184214375E0,4.929219240E-2,3.057589921E-2,-1.540741324E-2,6.001661626E-2
3.194164375E0,4.535385512E-2,3.461534764E-2,-4.032824636E-3,5.719666197E-2
3.204113375E0,4.894651232E-2,2.712777786E-2,-4.932126403E-3,5.617831674E-2
3.214063375E0,4.276729359E-2,2.533106554E-2,-2.124936640E-2,5.405774556E-2
3.224013375E0,3.988205812E-2,2.948361191E-2,-1.152018428E-2,5.091735045E-2
3.233963375E0,4.407585934E-2,3.179851089E-2,1.501564980E-3,5.436985717E-2
3.243912375E0,4.512260688E-2,3.192233938E-2,1.350706816E-3,5.528932819E-2
3.253862375E0,3.997004044E-2,2.509895849E-2,-8.529333472E-3,4.796156148E-2
3.263812375E0,4.026596437E-2,4.110187867E-2,-1.122431517E-2,5.862335343E-2
3.273761375E0,4.117676414E-2,2.385559604E-2,-9.877116680E-3,4.860218927E-2
3.283711375E0,4.413387469E-2,2.276395057E-2,3.017163277E-4,4.965971580E-2
3.293661375E0,3.869016716E-2,1.767335777E-2,-1.167396605E-2,4.410848097E-2
3.303610375E0,5.065812482E-2,3.042723832E-2,-1.930809081E-2,6.216803690E-2
3.313560375E0,4.920577238E-2,2.441972673E-2,-7.931748033E-3,5.550174516E-2
3.323510375E0,4.599722700E-2,2.099628018E-2,-7.183889151E-3,5.107050946E-2
3.333460375E0,4.094847148E-2,3.191826460E-2,-1.137458861E-2,5.315011005E-2
3.343409375E0,3.756746064E-2,2.822699959E-2,-6.434860826E-3,4.742873643E-2
3.353359375E0,3.925700447E-2,3.005092431E-2,-5.537313223E-3,4.974768627E-2
3.363309375E0,4.596742447E-2,3.644554441E-2,-3.142878413E-3,5.874657015E-2
3.373258375E0,4.696153336E-2,3.138742193E-2,-1.032852173E-2,5.742154850E-2
3.383208375E0,3.546575207E-2,2.939710053E-2,-6.586888433E-3,4.653381769E-2
3.393158375E0,4.141172171E-2,3.324292847E-2,-7.635294199E-3,5.364998328E-2
3.403107375E0,4.111513083E-2,1.869989929E-2,-1.452097535E-2,4.744469351E-2
3.413057375E0,4.093029486E-2,2.456471941E-2,-1.032969117E-2,4.884073092E-2
3.423007375E0,3.901549619E-2,2.977970487E-2,-2.547047138E-3,4.914801333E-2
3.432957375E0,3.764334654E-2,2.414118228E-2,-6.289265156E-3,4.515941847E-2
3.442906375E0,4.684188471E-2,2.590550423E-2,-2.547047138E-3,5.358866262E-2
3.452856375E0,4.026331942E-2,1.615779145E-2,-5.840783715E-3,4.377583660E-2
3.462806375E0,3.827666395E-2,2.385342846E-2,-5.243782997E-3,4.540469483E-2
3.472755375E0,4.146844884E-2,3.443089311E-2,-1.018292606E-2,5.485262649E-2
3.482705375E0,4.949520499E-2,2.794165318E-2,-1.137985110E-2,5.796561317E-2
3.492655375E0,4.405084879E-2,2.349948691E-2,2.964538336E-4,4.992785845E-2
3.502604375E0,3.775568160E-2,3.192153539E-2,-9.882379174E-3,5.041961258E-2
3.512554375E0,3.688362421E-2,2.554362096E-2,-8.983662128E-3,4.575570447E-2
3.522504375E0,5.005938821E-2,2.605146078E-2,-9.582417011E-3,5.724022775E-2
3.532454375E0,4.677056238E-2,3.151852062E-2,-3.295490742E-3,5.649568928E-2
3.542403375E0,4.285513887E-2,2.775998065E-2,-1.542144656E-2,5.333854579E-2
3.552353375E0,3.513421951E-2,3.143806202E-2,-1.602254033E-2,4.979444670E-2
3.562303375E0,4.228568402E-2,2.786752373E-2,-8.238726854E-3,5.130842594E-2
3.572252375E0,4.882560743E-2,2.491660987E-2,-1.512499273E-2,5.686424882E-2
3.582202375E0,4.214826989E-2,3.078414231E-2,-1.602370977E-2,5.459761302E-2
3.592152375E0,4.485811173E-2,3.011886165E-2,-7.192075253E-3,5.450799906E-2
3.602101375E0,3.977895983E-2,3.306857409E-2,-3.898923397E-3,5.187579244E-2
3.612051375E0,4.147488534E-2,4.241711847E-2,-1.228207648E-2,6.058240220E-2
3.622001375E0,3.853053361E-2,2.841386838E-2,-7.492622137E-3,4.845708744E-2
3.631951375E0,4.765319045E-2,2.269699995E-2,-8.241065741E-3,5.342186379E-2
3.641900375E0,4.387308430E-2,2.642220166E-2,-1.392865241E-2,5.307530145E-2
3.651850375E0,4.068862670E-2,3.353919044E-2,-1.467768073E-2,5.473459555E-2
3.661800375E0,4.152124737E-2,3.038327228E-2,-1.826962531E-2,5.459795258E-2
3.671749375E0,3.844619666E-2,2.279047318E-2,-1.392923713E-2,4.681387991E-2
3.681699375E0,5.026509143E-2,2.052071654E-2,-1.655931473E-3,5.431778100E-2
3.691649375E0,4.394326916E-2,3.360971563E-2,-1.048756599E-2,5.630819594E-2
3.701598375E0,4.407334687E-2,3.109938718E-2,-1.512967050E-2,5.602266252E-2
3.711548375E0,5.026834394E-2,3.191308890E-2,-1.378422618E-2,6.111756325E-2
3.721498375E0,4.794712267E-2,3.329499381E-2,-1.468294322E-2,6.019195965E-2
3.731448375E0,4.291028086E-2,2.695595195E-2,-1.228850842E-2,5.214329284E-2
3.741397375E0,3.687453361E-2,2.596613026E-2,-9.445007443E-3,4.607796996E-2
3.751347375E0,5.291011597E-2,2.123889623E-2,4.476043582E-3,5.718921272E-2
3.761297375E0,3.773311044E-2,2.905740014E-2,-1.543314099E-2,5.006298001E-2
3.771246375E0,3.464322698E-2,3.222271725E-2,-1.199205458E-2,4.880846295E-2
3.781196375E0,4.208885669E-2,3.076394201E-2,-3.459797502E-3,5.224808307E-2
3.791146375E0,4.333963551E-2,2.929820950E-2,-1.199205458E-2,5.367046170E-2
3.801096375E0,4.117721639E-2,3.025501954E-2,-1.259256363E-2,5.262605833E-2
3.811045375E0,4.162258236E-2,1.598506790E-2,-5.257231593E-3,4.489543676E-2
3.820995375E0,4.042607758E-2,2.826054570E-2,-1.274166763E-2,5.094385425E-2
3.830945375E0,4.651227533E-2,1.725708399E-2,-3.762098551E-3,4.975291037E-2
3.840894375E0,4.743521264E-2,2.115445422E-2,4.286009073E-4,5.194029294E-2
3.850844375E0,4.474129989E-2,2.579248623E-2,-1.409237444E-2,5.353159141E-2
3.860794375E0,3.425739754E-2,1.743975808E-2,1.922564507E-3,3.848909849E-2
3.870743375E0,4.328676389E-2,3.337041604E-2,-1.559043109E-2,5.683652115E-2
3.880693375E0,4.249705173E-2,3.025667321E-2,-6.909070015E-3,5.262319762E-2
3.890643375E0,3.760992148E-2,3.469830501E-2,-1.439292133E-2,5.315669994E-2
3.900593375E0,4.290882819E-2,3.138913955E-2,-2.716616392E-3,5.323368880E-2
3.910542375E0,4.220932304E-2,2.817216595E-2,4.318753481E-3,5.093083072E-2
3.920492375E0,3.337757431E-2,3.057425239E-2,-1.969342232E-3,4.530701585E-2
3.930442375E0,3.301876998E-2,1.752966702E-2,-2.202763081E-2,4.339060861E-2
3.940391375E0,4.151456875E-2,1.858390858E-2,-1.753755391E-2,4.874819867E-2
3.950341375E0,4.214845261E-2,2.484211954E-2,-7.718324661E-4,4.893075399E-2
3.960291375E0,5.025968275E-2,1.938201697E-2,-9.902844429E-3,5.477010700E-2
3.970241375E0,4.755387914E-2,2.746452952E-2,-1.184879780E-2,5.617887337E-2
3.980190375E0,4.285638141E-2,2.923082947E-2,-8.855608106E-3,5.262634904E-2
3.990140375E0,3.793963592E-2,3.198939278E-2,-2.569851279E-3,4.969246784E-2
4.000090375E0,3.258956607E-2,2.700098922E-2,-2.217907369E-2,4.778121540E-2
4.010039375E0,3.970757355E-2,2.578956262E-2,-1.970511675E-3,4.738856248E-2
4.019989375E0,3.641335275E-2,2.809599455E-2,-1.050393820E-2,4.717679393E-2
4.029939000E0,3.769785355E-2,2.323562901E-2,2.219018340E-3,4.433899706E-2
4.039888000E0,3.745265879E-2,2.267862462E-2,-8.708842993E-3,4.464152340E-2
4.049838000E0,3.522920479E-2,2.034069082E-2,-1.974020004E-3,4.072759909E-2
4.059788000E0,4.415710823E-2,2.486776049E-2,-9.309352040E-3,5.152591343E-2
4.069738000E0,4.997259360E-2,2.562856091E-2,-1.664409935E-2,5.857567148E-2
4.079687000E0,4.691789851E-2,1.683634256E-2,2.214925289E-3,4.989646807E-2
4.089637000E0,4.613483300E-2,1.672834380E-2,-3.221348047E-2,5.870237326E-2
4.099587000E0,4.764362934E-2,2.637347334E-2,-1.005954981E-2,5.537752301E-2
4.109536000E0,3.957562291E-2,2.607050306E-2,1.658387303E-2,5.020882296E-2
4.119486000E0,3.461160634E-2,3.431602959E-2,-1.724694729E-2,5.170116411E-2
4.129436000E0,3.134686830E-2,2.683421109E-2,-1.824331284E-4,4.126420142E-2
4.139386000E0,3.162156409E-2,3.444221067E-2,-1.081033230E-2,4.799012894E-2
4.149335000E0,2.699971927E-2,3.099001455E-2,-1.799656034E-2,4.486916566E-2
4.159285000E0,3.702091043E-2,4.090373115E-2,-2.099150419E-2,5.902801267E-2
4.169235000E0,3.039586892E-2,4.011667308E-2,-3.926990032E-3,5.048442886E-2
4.179184000E0,3.332253740E-2,2.805497725E-2,3.556861281E-3,4.370497122E-2
4.189134000E0,3.770889017E-2,2.372022158E-2,-1.829886138E-2,4.816074790E-2
4.199084000E0,4.654468170E-2,2.544761699E-2,-1.590384185E-2,5.537978684E-2
4.209034000E0,5.206603842E-2,2.092663893E-2,-1.380703032E-2,5.778780719E-2
4.218983000E0,4.258739121E-2,6.200130520E-3,-1.350706816E-2,4.510619025E-2
4.228933000E0,3.714211225E-2,8.275112067E-3,-9.615746140E-3,3.924890516E-2
4.238883000E0,4.720494198E-2,1.804835959E-2,-1.560387969E-2,5.289169020E-2
4.248832000E0,3.213039976E-2,2.579314632E-2,-1.859882355E-2,4.520580962E-2
4.258782000E0,2.779764037E-2,3.190086229E-2,-1.385790110E-3,4.233549621E-2
4.268732000E0,2.386226781E-2,2.897024008E-2,-1.515715241E-2,4.047742463E-2
4.278682000E0,2.494706335E-2,2.977184538E-2,-1.575649202E-2,4.191641431E-2
4.288631000E0,3.379266724E-2,1.803560535E-2,-2.284507155E-3,3.837246920E-2
4.298581000E0,3.753606384E-2,2.410494096E-2,-1.051855624E-2,4.583278622E-2
4.308531000E0,3.589608430E-2,2.291093952E-2,-2.284507155E-3,4.264573825E-2
4.318480000E0,3.909321848E-2,2.072541477E-2,-1.635583162E-2,4.717346475E-2
4.328430000E0,5.189275527E-2,2.458290059E-2,-1.351116121E-2,5.898922383E-2
4.338380000E0,5.773484090E-2,4.189948000E-2,-5.877036452E-3,7.157805415E-2
4.348330000E0,5.425394774E-2,3.632371905E-2,-6.175829172E-3,6.558234730E-2
4.358279000E0,5.490831970E-2,3.743021553E-2,-1.231306672E-2,6.758369788E-2
4.368229000E0,4.739722858E-2,2.835408517E-2,-1.261244416E-2,5.665267135E-2
4.378179000E0,4.369470768E-2,1.847948781E-2,-9.319877028E-3,4.834851659E-2
4.388128000E0,3.666370494E-2,1.677975476E-2,-1.685752273E-3,4.035627821E-2
4.398078000E0,2.805592285E-2,1.118123421E-2,-2.324151278E-2,3.810935215E-2
4.408028000E0,2.791756768E-2,1.391699680E-2,-8.721706867E-3,3.239045470E-2
4.417978000E0,2.836963054E-2,2.063358379E-2,-1.890112460E-2,3.984762512E-2
4.427927000E0,2.649386660E-2,2.435913953E-2,-2.114704013E-2,4.174314257E-2
4.437877000E0,2.880868791E-2,3.554769988E-2,-5.429139733E-3,4.607662123E-2
4.447827000E0,3.348977233E-2,2.747298286E-2,-7.675055265E-3,4.399131859E-2
4.457776000E0,3.260735440E-2,2.797148540E-2,-1.186633945E-2,4.456964851E-2
4.467726000E0,3.529468903E-2,2.963867048E-2,-2.585638762E-3,4.616114589E-2
4.477676000E0,3.567597318E-2,2.056385346E-2,-1.755509555E-2,4.476414314E-2
4.487626000E0,3.058202051E-2,1.823111819E-2,-8.425253034E-3,3.658713623E-2
4.497575000E0,3.992586199E-2,2.701169921E-2,-1.186750889E-2,4.964417506E-2
4.507525000E0,4.853440239E-2,2.524218558E-2,-1.351466954E-2,5.635070932E-2
4.517475000E0,5.362871137E-2,2.585913763E-2,-1.141902745E-2,6.062283291E-2
4.527424000E0,5.784277685E-2,2.466271052E-2,-8.725799918E-3,6.348366489E-2
4.537374000E0,5.457688307E-2,3.246252618E-2,-1.172015905E-2,6.457409620E-2
4.547324000E0,5.191822263E-2,3.281236783E-2,-6.780431271E-3,6.179099912E-2
4.557274000E0,4.402967091E-2,1.641521969E-2,-1.172015905E-2,4.842967567E-2
4.567223000E0,2.663932065E-2,1.192288842E-2,-1.201836705E-2,3.156342535E-2
4.577173000E0,2.592923113E-2,8.764231086E-3,-6.181676388E-3,2.805975582E-2
4.587123000E0,2.012182679E-2,-2.936926230E-3,-1.591085851E-2,2.581993160E-2
4.597072000E0,2.656830896E-2,6.526929347E-3,-5.732025504E-3,2.795231590E-2
4.607022000E0,2.928865295E-2,2.682418632E-2,-2.438873649E-3,3.979083146E-2
4.616972000E0,2.478019844E-2,1.703617344E-2,4.148599505E-3,3.035622371E-2
4.626922000E0,2.343266648E-2,2.383307741E-2,-2.159902990E-2,3.979476762E-2
4.636871000E0,3.569677647E-2,3.289826252E-2,-7.679148316E-3,4.914798924E-2
4.646821000E0,5.407219070E-2,3.063705971E-2,-5.033049345E-2,7.997243154E-2
4.656771000E0,1.384537618E-1,1.812595054E-2,-1.873827964E-1,2.336884820E-1
4.666721000E0,5.148193812E-1,1.698783889E-1,-9.507455707E-2,5.503969783E-1
4.676670000E0,1.121491723E0,5.206807033E-1,2.151032764E-1,1.255038445E0
4.686620000E0,-5.770754902E-1,-4.276372131E-1,7.589978278E-2,7.222537535E-1
4.696570000E0,-9.653027257E-1,-3.588838973E-1,-5.222849965E-2,1.031181274E0
4.706519000E0,-3.709850024E-2,6.436972219E-2,1.228967786E-2,7.530468801E-2
4.716469000E0,2.353502473E-2,-4.673320016E-3,1.767437875E-2,2.980135858E-2
4.726419000E0,-8.678438385E-2,-1.230375001E-2,-5.477788568E-2,1.033611547E-1
4.736369000E0,-8.307057965E-2,4.174382986E-2,2.054618025E-1,2.255167861E-1
4.746318000E0,-4.627955341E-1,8.594826285E-3,4.322139019E-1,6.332949032E-1
4.756268000E0,-5.197863351E-1,-3.222775499E-1,1.083192022E0,1.243923474E0
4.766218000E0,-4.320700969E-1,-7.384147516E-1,1.494375243E0,1.721946074E0
4.776167000E0,-8.411018718E-2,-7.909611205E-1,-6.611166072E-1,1.034296469E0
4.786117000E0,4.928153220E-1,1.865571549E0,6.110340357E-4,1.929565889E0
4.796067000E0,3.368098542E-1,9.619741251E-1,2.020438710E0,2.262964356E0
4.806017000E0,7.200490858E-1,4.770942056E-1,-2.229124668E0,2.390624678E0
4.815966000E0,4.539532650E-1,1.407980732E0,3.911249328E-1,1.530183656E0
4.825916000E0,-1.918978702E-1,9.202346532E-1,1.360679242E0,1.653815168E0
4.835866000E0,-1.510456548E0,1.486151536E-1,1.529814048E0,2.154970178E0
4.845816000E0,-1.355890372E0,-2.440579939E-1,4.414811540E0,4.624777177E0
4.855765000E0,-5.405787416E-1,2.672656477E-1,4.069407740E0,4.113846820E0
4.865715000E0,-1.567009941E-2,8.374260928E-1,-5.234444994E-1,9.876852519E-1
4.875665000E0,3.629511474E-1,6.414632383E-1,-6.383422869E-1,9.750330747E-1
4.885614000E0,7.378027674E-1,-1.917513243E-1,1.632891689E0,1.802070132E0
4.895564000E0,1.056361927E0,-3.614135490E-1,4.472218918E0,4.609475277E0
4.905514000E0,1.204247366E0,7.779029723E-1,4.720537888E0,4.933439237E0
4.915464000E0,2.774645330E0,-1.518899343E0,2.531959568E0,4.051731873E0
4.925413000E0,2.015877590E0,-5.128130334E0,3.666309464E-1,5.522309429E0
4.935363000E0,-8.104030395E-1,-3.495960776E0,-1.171189694E0,3.774941077E0
4.945313000E0,1.125656768E0,2.974101165E0,-6.204883987E-1,3.239967091E0
4.955262000E0,-1.481806361E0,5.320514912E-1,1.376705875E0,2.091446377E0
4.965212000E0,-8.519697261E-1,-2.582435657E0,-1.983995354E-1,2.726570870E0
4.975162000E0,-1.391092438E-1,-2.246033207E0,-2.438826871E-1,2.263513931E0
4.985112000E0,5.499330806E-1,-1.782739162E0,8.274570286E-1,2.040899421E0
4.995061000E0,1.791598278E0,-8.723264419E-1,1.759703763E0,2.658446002E0
5.005011000E0,2.987930122E0,-3.690573947E-1,4.506132184E0,5.419331789E0
5.014961000E0,4.197927786E0,-1.356308887E0,6.343053108E0,7.726350641E0
5.024911000E0,2.762453885E0,-5.615008101E-2,1.978717657E0,3.398474344E0
5.034860292E0,7.594930869E-1,1.677461506E0,2.110707441E0,2.801034229E0
5.044810292E0,2.155550615E0,-3.773723108E0,3.970092198E0,5.886341530E0
5.054760292E0,4.722185048E0,-3.757345642E0,-2.481538442E0,6.524929957E0
5.064710292E0,4.936641623E0,-2.769341905E0,-5.174855434E0,7.669342466E0
5.074659292E0,5.400835117E0,-2.402617696E0,-3.824559678E0,7.040514788E0
5.084609292E0,1.889382435E0,-8.765821186E-1,-7.590624395E0,7.871196917E0
5.094559292E0,-5.439936617E-1,2.012387972E0,-3.961308510E0,4.476337740E0
5.104508292E0,-1.846912061E0,6.503206006E-1,-2.491667574E0,3.168975914E0
5.114458292E0,-1.721182306E0,1.040310296E-1,-1.370701954E0,2.202751651E0
5.124408292E0,-5.171990883E-1,5.733113086E-1,5.819663572E-1,9.668844784E-1
5.134358292E0,1.065004842E0,2.689362520E-1,-3.082149231E-1,1.140858651E0
5.144307292E0,-2.653302741E-1,1.442765379E0,-4.265902838E0,4.511086245E0
5.154257292E0,3.158654201E-1,2.187270298E0,-1.681155776E0,2.776725961E0
5.164207292E0,5.111466354E-1,1.501488820E0,-4.167193651E-2,1.586655636E0
5.174157292E0,5.818499976E-1,1.083328993E0,1.572830844E0,1.996483907E0
5.184106292E0,2.378366076E0,4.378864320E-1,1.821816396E0,3.027768931E0
5.194056292E0,3.932950099E0,-2.502035272E-1,-5.516789496E-2,3.941286818E0
5.204006292E0,3.715189263E0,-8.879530527E-1,-2.954096963E0,4.828848802E0
5.213956292E0,2.264557040E0,-1.442164578E0,-3.164892011E0,4.150252847E0
5.223905292E0,4.712399733E-1,-1.246349658E0,-8.997572654E-1,1.607799029E0
5.233855292E0,-4.912409592E-1,6.752521048E-1,2.211557293E-1,8.638246012E-1
5.243805292E0,-9.459444219E-1,1.504956365E0,-9.328624463E-1,2.007470262E0
5.253754292E0,-1.163509376E0,1.505704662E0,-2.114012872E0,2.844283920E0
5.263704292E0,-1.294162486E0,1.530718758E0,-2.410971320E0,3.135400958E0
5.273654292E0,-8.862466890E-1,1.593352963E0,-2.345908767E0,2.971110028E0
5.283604292E0,-3.891678697E-1,1.554867759E0,-2.340338709E0,2.836591379E0
5.293553292E0,-3.091873151E-1,1.342123688E0,-1.753729663E0,2.229901460E0
5.303503292E0,-1.213591070E0,1.427659974E0,7.025786287E-1,2.001157919E0
5.313453292E0,-1.715275742E0,2.100223968E0,3.871780037E0,4.726922069E0
5.323403292E0,-9.376948777E-1,2.618568234E0,3.842443387E0,4.743473670E0
5.333352292E0,1.106737590E-1,2.694878491E0,1.509339437E0,3.090748178E0
5.343302292E0,4.710082774E-1,1.969754168E0,-1.001874209E0,2.259542478E0
5.353252292E0,3.746892866E-1,1.710733771E-1,-2.323181809E0,2.359413461E0
5.363202292E0,9.817065775E-2,-5.359630957E-1,-1.130910564E0,1.255329687E0
5.373151292E0,-5.547940537E-2,-5.275319224E-1,-1.060249887E0,1.185536889E0
5.383101292E0,4.897535737E-1,-5.647970317E-1,-1.518209664E0,1.692280956E0
5.393051292E0,1.005629729E0,-8.596370338E-1,-1.936664482E0,2.345407491E0
5.403001292E0,1.922222152E0,-1.685117850E0,-3.754532254E-1,2.583703794E0
5.412950292E0,2.905116299E0,-2.223145597E0,1.896872426E0,4.120704073E0
5.422900292E0,2.882740759E0,-2.215422595E0,3.338975900E0,4.936299385E0
5.432850292E0,1.311003052E0,-1.382314232E0,5.028795496E0,5.377574339E0
5.442800292E0,-7.585853067E-1,-3.659805898E-1,5.691700766E0,5.753681523E0
5.452749292E0,-3.508937502E0,-1.338847347E0,6.465168114E0,7.476867884E0
5.462699292E0,-5.908902023E0,-2.699477618E0,5.652298719E0,8.611084911E0
5.472649292E0,-5.583557097E0,-1.692608133E0,-1.118569431E0,5.940726363E0
5.482598292E0,-4.326494610E0,-6.124958396E-4,-5.872360434E0,7.294050524E0
5.492548292E0,-2.480811341E0,5.956327620E-1,-8.844998918E0,9.205607484E0
5.502498292E0,-4.926263107E-1,1.236123901E0,-8.114835464E0,8.223213337E0
5.512448292E0,2.257668436E-2,1.492874263E0,-5.021943144E0,5.239188507E0
5.522397292E0,-3.602542654E-2,1.201565979E0,-1.100823716E0,1.629991254E0
5.532347292E0,-2.117627621E-2,6.450940669E-3,1.392430792E0,1.392606750E0
5.542297292E0,-3.625069052E-2,-4.805434781E-1,1.507043236E0,1.582218525E0
5.552247292E0,-4.242165188E-1,-1.045141558E0,1.386290047E0,1.787199101E0
5.562196292E0,-1.092034181E0,-1.645568160E0,2.046065302E0,2.843732836E0
5.572146292E0,-2.240945837E0,-2.057736053E0,2.958831453E0,4.243913227E0
5.582096292E0,-4.674341083E0,-3.872971115E0,5.184078248E0,7.982733686E0
5.592046292E0,-4.637798032E0,-3.202807988E0,6.924909537E0,8.928690929E0
5.601995292E0,-2.628777764E0,-1.721723174E0,8.990903905E0,9.524240455E0
5.611945292E0,-9.776112608E-1,-2.585027435E0,8.347597917E0,8.793206559E0
5.621895292E0,-6.325624605E-1,-3.241976147E0,6.880538526E0,7.632323042E0
5.631845292E0,-2.068074661E-1,-3.610423823E0,6.082666070E0,7.076493201E0
5.641794292E0,-4.072087227E-1,-4.008248788E0,4.383307911E0,5.953592658E0
5.651744292E0,-7.183217452E-1,-4.022125693E0,2.972668889E0,5.052745941E0
5.661694292E0,8.172624081E-2,-2.676951805E0,2.592013396E0,3.727101231E0
5.671644292E0,9.856140525E-1,-1.755099081E0,2.203100465E0,2.984201652E0
5.681593292E0,1.597372485E0,-1.613016126E0,2.355197069E0,3.271142478E0
5.691543292E0,2.621779817E0,-7.757883999E-1,2.376862757E0,3.622851586E0
5.701493292E0,2.661695834E0,-3.257679722E-1,1.524124122E0,3.084429255E0
5.711443292E0,1.564900850E0,-1.009381742E0,1.031613733E0,2.128847825E0
5.721392292E0,8.091024725E-1,-1.726604429E0,-1.026290427E0,2.165428759E0
5.731342292E0,-3.278658801E-1,-2.207886996E0,-1.910840839E0,2.938294358E0
5.741292292E0,-7.576910482E-1,-1.354447864E0,-7.809810197E-1,1.737399233E0
5.751242292E0,-1.888930591E-1,-1.355457094E0,-1.722441797E0,2.199943241E0
5.761191292E0,7.286335292E-1,-2.056718929E0,-3.566563566E0,4.181073456E0
5.771141292E0,1.414451114E0,-2.006084965E0,-3.198343347E0,4.031680668E0
5.781091292E0,1.467523806E0,-8.983510101E-1,-1.246897688E0,2.124950470E0
5.791041292E0,1.119423490E0,1.147289200E0,6.303970903E-1,1.722434890E0
5.800990292E0,4.696375439E-1,1.680976852E0,-9.751050711E-2,1.748070621E0
5.810940292E0,-3.417713994E-2,-3.064239210E-1,-2.041179369E0,2.064334496E0
5.820890292E0,9.379536170E-1,-3.402687746E-1,-2.165711029E0,2.384500805E0
5.830840292E0,5.054567464E-1,6.460266978E-1,-1.358703468E0,1.587108103E0
5.840790292E0,-4.281376032E0,3.040328191E0,6.917454922E-1,5.296441075E0
5.850739292E0,-1.057778152E1,1.137096334E1,4.902160592E0,1.628555948E1
5.860689292E0,-6.321681535E0,3.570471845E0,5.040557170E0,8.838503448E0
5.870639292E0,-3.453306507E0,-8.359302873E0,6.555542094E0,1.117042535E1
5.880589292E0,-3.949143086E0,-2.404249946E0,6.452358618E0,7.937825940E0
5.890538292E0,-3.064582734E0,-2.020196636E0,2.627010151E0,4.513761637E0
5.900488292E0,-2.808288454E0,-2.311380959E0,1.614457172E0,3.979376577E0
5.910438292E0,-2.309480467E0,-2.693245071E0,1.683092959E0,3.926839817E0
5.920388292E0,-1.639621688E0,-2.989165054E0,3.035125338E0,4.564586818E0
5.930337292E0,-8.181734043E-1,-3.206338245E0,4.267857562E0,5.400427837E0
5.940287292E0,-5.707777101E-1,-2.936621974E0,5.036669356E0,5.858120348E0
5.950237292E0,-8.516670596E-1,-2.862486881E0,4.279267818E0,5.218361906E0
5.960187292E0,-1.240519399E0,-2.235891066E0,3.248003165E0,4.133717672E0
5.970136292E0,-1.552132431E0,-2.265303145E0,2.127898840E0,3.473998690E0
5.980086292E0,-1.405327265E0,-2.138450140E0,1.244019688E0,2.845258988E0
5.990036292E0,-6.543693589E-1,-1.349425106E0,5.203671098E-1,1.587428519E0
5.999986292E0,-6.758328795E-2,-8.771530992E-1,-1.013790250E-1,8.855748229E-1
6.009935292E0,2.423504242E-1,-8.872740448E-1,-4.723614693E-1,1.033979843E0
6.019885292E0,5.194005650E-1,-1.218362106E0,-1.135704696E-1,1.329316148E0
6.029835667E0,1.059839997E-1,-2.347937751E-1,3.071290952E-1,4.008603324E-1
6.039785667E0,-1.426366863E-1,-3.438928789E-1,1.029747886E0,1.094983217E0
6.049735667E0,-3.939470914E-1,-2.290930907E0,1.317671217E0,2.672043444E0
6.059684667E0,-8.388541290E-1,-2.395656293E0,1.287863865E0,2.846302630E0
6.069634667E0,-1.089200036E0,-2.457581230E0,3.274358904E-1,2.708002305E0
6.079584667E0,-8.381398916E-1,-2.397578273E0,-1.107259161E0,2.770718842E0
6.089534667E0,-6.261783242E-1,-1.981445383E0,-2.013974614E0,2.893841538E0
6.099483667E0,-5.573554265E-1,-1.908268064E0,-2.262320480E0,3.011681595E0
6.109433667E0,-7.139736825E-1,-2.245322624E0,-1.856897351E0,2.999883311E0
6.119383667E0,-1.128288088E0,-2.564750168E0,-1.398019561E0,3.131363302E0
6.129333667E0,-1.293532741E0,-2.544863788E0,-4.978997684E-1,2.897837613E0
6.139282667E0,-1.405287650E0,-1.842773402E0,3.161004782E-2,2.317681252E0
6.149232667E0,-6.879681909E-1,-2.817536995E0,-4.892932516E-1,2.941296115E0
6.159182667E0,-8.965260941E-1,-2.853156479E0,-7.791599044E-1,3.090526021E0
6.169132667E0,-1.046017179E0,-2.067684213E0,-1.179405032E0,2.600089647E0
6.179081667E0,-9.762183809E-1,-2.307345210E0,-1.530466305E0,2.935842529E0
6.189031667E0,-1.200470211E0,-2.324347744E0,-1.149172296E0,2.857327095E0
6.198981667E0,-1.497694123E0,-2.284505986E0,-5.894024076E-1,2.794539405E0
6.208931667E0,-1.520298874E0,-2.764511520E0,-5.419994688E-1,3.201186661E0
6.218881667E0,-1.329015985E0,-3.381173501E0,-4.513927692E-1,3.660925179E0
6.228830667E0,-9.214089203E-1,-3.103614945E0,-5.867007016E-1,3.290233706E0
6.238780667E0,-4.524136931E-1,-2.778178802E0,-1.128065894E0,3.032406349E0
6.248730667E0,-8.471270621E-2,-2.569925539E0,-1.916743019E0,3.207116667E0
6.258680667E0,1.546880901E-2,-2.675378904E0,-2.530971388E0,3.682893934E0
6.268629667E0,-7.567431414E-1,-2.574228505E0,-2.594499047E0,3.732390371E0
6.278579667E0,-1.655923871E0,-2.737841200E0,-1.731421366E0,3.638087169E0
6.288529667E0,-2.200650482E0,-2.995771823E0,-7.949788155E-1,3.801250146E0
6.298479667E0,-2.129307434E0,-2.978859629E0,-1.369521694E-1,3.664193053E0
6.308429667E0,-1.455721639E0,-3.238953429E0,-4.807885496E-1,3.583448400E0
6.318378667E0,-9.064441413E-1,-2.816235113E0,-1.247924459E0,3.210940150E0
6.328328667E0,-7.064828146E-1,-1.760551902E0,-2.409169208E0,3.066391567E0
6.338278667E0,4.843669724E-1,-3.376754468E0,-4.129751006E0,5.356484432E0
6.348228667E0,8.432895344E-1,-3.291736245E0,-4.506250883E0,5.643842819E0
6.358177667E0,2.153014970E-1,-1.494110364E0,-4.315100141E0,4.571521600E0
6.368127667E0,-3.271417755E-1,-1.972967213E0,-3.653101773E0,4.164705744E0
6.378077667E0,-9.010547626E-1,-2.875816779E0,-2.290383022E0,3.785244539E0
6.388027667E0,-1.162288477E0,-3.189438330E0,-1.407387385E0,3.674802119E0
6.397977667E0,-7.192835391E-1,-2.795720741E0,-1.078073369E0,3.081503767E0
6.407926667E0,8.596342564E-2,-2.552685024E0,-1.542400180E0,2.983720639E0
6.417876667E0,7.943693894E-1,-2.398155978E0,-2.810070686E0,3.778713019E0
6.427826667E0,1.276278192E0,-1.873177023E0,-4.036596674E0,4.629448228E0
6.437776667E0,1.083332940E0,-1.152687934E0,-4.139840961E0,4.431769727E0
6.447725667E0,7.929783368E-1,-2.295860694E0,-4.203469192E0,4.854785703E0
6.457675667E0,1.783225358E-2,-3.016271284E0,-3.179543964E0,4.382660181E0
6.467625667E0,-1.126446800E0,-2.466988816E0,-2.132559071E0,3.450032521E0
6.477575667E0,-8.966740286E-1,-3.482343196E0,-2.092019740E0,4.160202524E0
6.487525667E0,4.663651496E-1,-3.011777406E0,-2.275473792E0,3.803430107E0
6.497474667E0,2.275879004E0,-1.982051886E0,-3.578186077E0,4.680979654E0
6.507424667E0,4.230057067E0,-1.299393259E0,-5.140364463E0,6.782709816E0
6.517374667E0,5.738881949E0,-1.211628964E0,-6.114436916E0,8.472847784E0
6.527324667E0,5.948009371E0,-8.770136431E-1,-6.124945532E0,8.582710888E0
6.537273667E0,5.239181823E0,-6.055171146E-1,-5.444865235E0,7.580384857E0
6.547223667E0,4.130901153E0,-1.612228214E0,-4.604993398E0,6.392932687E0
6.557173667E0,3.003550959E0,-2.263079303E0,-3.443417112E0,5.099016346E0
6.567123667E0,2.902463710E0,-2.481969967E0,-3.036311738E0,4.878899412E0
6.577073667E0,4.143408932E0,-2.086274704E0,-3.729784498E0,5.952450934E0
6.587022667E0,5.929736238E0,-1.343000039E0,-5.269446427E0,8.045650166E0
6.596972667E0,7.654149715E0,-1.493705006E0,-6.570969973E0,1.019778451E1
6.606922667E0,8.356030186E0,-1.911102502E0,-7.139961358E0,1.115592226E1
6.616872667E0,8.351495086E0,-2.350546778E0,-6.822880887E0,1.103740205E1
6.626821667E0,6.914038394E0,-3.869984357E0,-6.095503632E0,9.996793004E0
6.636771667E0,5.083338323E0,-4.692768291E0,-3.763768516E0,7.875808288E0
6.646721667E0,3.702814216E0,-4.660509202E0,-1.213813557E0,6.074909258E0
6.656671667E0,2.738523570E0,-4.678615398E0,3.660175735E-1,5.433500000E0
6.666621667E0,2.963746038E0,-3.810875439E0,9.502052879E-1,4.920310181E0
6.676570667E0,3.591555151E0,-3.140786279E0,-3.010848284E-2,4.771238139E0
6.686520667E0,4.284619190E0,-3.072536117E0,-2.455025997E0,5.815977342E0
6.696470667E0,5.675363061E0,-4.208260401E0,-3.769411663E0,8.007975135E0
6.706420667E0,7.134559700E0,-6.127867970E0,-3.326630089E0,9.975929818E0
6.716370667E0,8.715002450E0,-7.661244142E0,-2.201079082E0,1.181061720E1
6.726319667E0,1.015258135E1,-8.234822668E0,-1.149660246E0,1.312284005E1
6.736269667E0,9.836278557E0,-1.042493530E1,3.595733571E-1,1.433739672E1
6.746219667E0,9.863752284E0,-1.153540341E1,3.743838281E0,1.563251311E1
6.756169667E0,8.320708326E0,-7.479034377E0,6.093762331E0,1.273986191E1
6.766118667E0,6.696762877E0,-6.324413354E0,7.719061995E0,1.201785153E1
6.776068667E0,4.781858808E0,-5.511411812E0,8.331366046E0,1.107490379E1
6.786018667E0,2.690888936E0,-3.844871151E0,8.848041809E0,1.001557593E1
6.795968667E0,1.564362321E0,-3.834761315E0,8.275181320E0,9.253715454E0
6.805918667E0,7.662154115E-1,-3.630455507E0,7.248968076E0,8.143391886E0
6.815867667E0,4.297283236E-2,-3.219902616E0,6.031356168E0,6.837168766E0
6.825817667E0,-3.612159862E-1,-3.012766171E0,5.184764126E0,6.007413422E0
6.835767667E0,-2.728139061E-1,-2.683210664E0,4.543874792E0,5.284017886E0
6.845717667E0,1.315331801E-1,-2.329428390E0,3.875741526E0,4.523815864E0
6.855667667E0,4.736035275E-1,-1.960225838E0,3.231594708E0,3.809198077E0
6.865616667E0,8.303416794E-1,-1.592583323E0,2.680589942E0,3.226662577E0
6.875566667E0,8.559141847E-1,-1.053346664E0,2.337864752E0,2.703283168E0
6.885516667E0,4.323717036E-1,-6.316343611E-1,2.165554909E0,2.296853351E0
6.895466667E0,-1.914701098E-1,-4.894721764E-1,1.979619298E0,2.048203208E0
6.905416667E0,-5.733888573E-1,-2.589772743E-1,1.852010248E0,1.955961648E0
6.915365667E0,-9.548286813E-1,-8.548512340E-2,9.696110272E-1,1.363506898E0
6.925315667E0,-1.540658879E0,1.742008334E-1,1.928002417E-2,1.550595831E0
6.935265667E0,-1.775812550E0,1.490695006E-1,-6.612674654E-1,1.900791043E0
6.945215667E0,-1.722484774E0,-1.878382945E-1,-8.493028110E-1,1.929650820E0
6.955164667E0,-1.684907204E0,-7.897366405E-2,-1.089365512E-1,1.690271072E0
6.965114667E0,-1.454565645E0,3.022367299E-2,7.513701349E-1,1.637446721E0
6.975064667E0,-7.766103722E-1,-7.278029323E-2,1.126088950E0,1.369852899E0
6.985014667E0,6.314623799E-2,-1.298286527E-1,9.620774746E-1,9.728494198E-1
6.994964667E0,7.814770098E-1,1.157392019E-1,8.228880143E-1,1.140721949E0
7.004913667E0,1.179938225E0,1.168016410E-1,3.975638866E-1,1.250581417E0
7.014863667E0,1.110181965E0,1.829412514E-1,6.494268537E-2,1.127026641E0
7.024813667E0,4.845143954E-1,2.706465626E-1,-1.306303060E-1,5.701473827E-1
7.034763750E0,-2.256580853E-1,2.974168700E-1,-8.279856169E-1,9.082612773E-1
7.044713750E0,-3.222877825E-1,1.438608009E-1,-1.351219032E0,1.396552261E0
7.054662750E0,-1.409373392E-1,-1.041915357E-2,-1.023888391E0,1.033595342E0
7.064612750E0,1.385120603E-1,4.527148247E-2,-6.590706664E-1,6.749883268E-1
7.074562750E0,5.295820293E-1,4.785419762E-2,-3.804508406E-1,6.538271882E-1
7.084512750E0,7.306295494E-1,2.025715238E-1,7.867721021E-2,7.622629888E-1
7.094462750E0,8.754335061E-1,2.039801180E-1,2.660091358E-1,9.374180351E-1
7.104411750E0,8.995282739E-1,2.097986823E-1,3.997308648E-1,1.006454851E0
7.114361750E0,8.124869871E-1,3.162396419E-1,5.541523218E-1,1.033066993E0
7.124311750E0,7.385828590E-1,2.187624639E-1,6.432229578E-1,1.003542440E0
7.134261750E0,5.594610089E-1,1.724975395E-1,2.380541825E-1,6.319982717E-1
7.144211750E0,5.659353384E-1,1.111532307E-1,-4.451619762E-1,7.285650507E-1
7.154160750E0,6.390895611E-1,1.399338108E-1,-7.981478602E-1,1.032015962E0
7.164110750E0,6.581618629E-1,2.399697304E-3,-6.991106451E-1,9.601762809E-1
7.174060750E0,6.404086930E-1,-2.207166034E-1,-3.931124014E-1,7.831835501E-1
7.184010750E0,5.397028287E-1,-1.086740112E-1,5.696474433E-2,5.534746300E-1
7.193960750E0,6.251359119E-1,-1.504412574E-1,2.294242769E-1,6.826880540E-1
7.203909750E0,6.469306773E-1,-1.493647850E-1,1.854766041E-1,6.893697925E-1
7.213859750E0,6.325339553E-1,-1.021204519E-1,2.244541436E-1,6.789016526E-1
7.223809750E0,5.122098054E-1,-9.245968223E-2,2.779549974E-1,5.900564873E-1
7.233759750E0,1.664124884E-1,-1.752469003E-2,2.399779165E-1,2.925570567E-1
7.243709750E0,-1.179088113E-1,-4.301036417E-2,-1.385468513E-1,1.869427966E-1
7.253658750E0,-3.233127263E-1,1.417037630E-1,-5.793251699E-1,6.784015978E-1
7.263608750E0,-3.591399322E-1,1.819864011E-1,-9.586065674E-1,1.039724527E0
7.273558750E0,-2.640128964E-1,4.153628111E-2,-1.269900050E0,1.297718848E0
7.283508750E0,-2.203032053E-1,1.439923632E-1,-1.172870768E0,1.202037080E0
7.293458750E0,-2.407478486E-1,5.377099514E-3,-9.487475771E-1,9.788311421E-1
7.303407750E0,-3.331168990E-1,-9.586919367E-2,-4.360426587E-1,5.570376746E-1
7.313357750E0,-4.425393538E-1,-1.572994566E-1,9.588498116E-2,4.793517793E-1
7.323307750E0,-4.497660738E-1,-2.712991118E-1,3.627302688E-1,6.383306175E-1
7.333257750E0,-3.839372429E-1,-4.797044027E-1,4.987926382E-1,7.914026891E-1
7.343207750E0,-4.290390100E-1,-4.234372312E-1,6.803305578E-1,9.089682221E-1
7.353156750E0,-4.851848517E-1,-4.771018070E-1,6.469482189E-1,9.389209086E-1
7.363106750E0,-4.742164984E-1,-3.472123432E-1,6.734805447E-1,8.938756864E-1
7.373056750E0,-4.319563320E-1,-2.851599365E-1,5.229597652E-1,7.357916677E-1
7.383006750E0,-1.857786128E-1,-2.383278322E-1,2.885630161E-1,4.178306629E-1
7.392956750E0,1.173799306E-1,-2.506104934E-1,2.620950097E-1,3.811528061E-1
7.402905750E0,3.250242063E-1,-1.554470587E-1,1.687056202E-1,3.978267324E-1
7.412855750E0,3.471474391E-1,-6.367325485E-2,9.357766986E-2,3.651334115E-1
7.422805750E0,2.768929969E-1,2.409462154E-2,1.395847321E-1,3.110211889E-1
7.432755750E0,2.232689130E-1,7.142958641E-3,6.296106398E-2,2.320864601E-1
7.442705750E0,1.262345155E-1,7.433565259E-2,7.517472804E-2,1.646577720E-1
7.452654750E0,-2.996493369E-2,-1.768373430E-2,-1.388070524E-2,3.746045499E-2
7.462604750E0,-1.730157490E-1,-8.407652915E-2,2.441504896E-2,1.939056646E-1
7.472554750E0,-1.589374079E-1,8.587103963E-2,-6.250790477E-2,1.911600723E-1
7.482504750E0,6.026535138E-2,4.963935256E-2,-2.390563953E-1,2.514834747E-1
7.492454750E0,3.207110077E-1,8.850111723E-2,-2.349370319E-1,4.072878677E-1
7.502403750E0,4.753015955E-1,5.239573002E-2,-2.740812171E-1,5.511600790E-1
7.512353750E0,5.123150553E-1,6.155597806E-2,-3.940350920E-1,6.492453373E-1
7.522303750E0,5.734893563E-1,6.861239791E-2,-3.384198850E-1,6.694219309E-1
7.532253750E0,4.909646782E-1,1.107486033E-1,-2.647572470E-1,5.686896942E-1
7.542203750E0,3.564698012E-1,2.296435475E-2,-1.768443596E-1,3.985875165E-1
7.552152750E0,1.355010366E-1,-1.836318076E-2,3.232633173E-2,1.405088220E-1
7.562102750E0,1.653768003E-2,-4.173976421E-2,1.891007084E-1,1.943573530E-1
7.572052750E0,-2.027492791E-2,-6.255058944E-2,2.564717424E-1,2.647666965E-1
7.582002750E0,-5.818695858E-2,-7.302587628E-2,2.593403864E-1,2.756373283E-1
7.591952750E0,-1.913438465E-1,3.398752570E-2,1.666468155E-1,2.560054308E-1
7.601901750E0,-2.440971337E-1,9.195565224E-2,-7.127697408E-2,2.704064713E-1
7.611851750E0,-1.469495925E-1,1.076881707E-2,-3.663719147E-1,3.948905292E-1
7.621801750E0,-1.705501243E-2,3.306015730E-2,-3.932147276E-1,3.949704666E-1
7.631751750E0,1.162205739E-1,3.807414472E-2,-2.344183838E-1,2.644028006E-1
7.641701750E0,2.012849902E-1,-6.346743286E-2,-1.045178103E-1,2.355158911E-1
7.651650750E0,2.318368381E-1,-6.240674794E-2,1.206461853E-1,2.686976437E-1
7.661600750E0,8.493548512E-2,-1.312658983E-1,3.123459810E-1,3.492918329E-1
7.671550750E0,-4.748640776E-2,-2.523576415E-1,4.522838849E-1,5.200961936E-1
7.681500750E0,-9.746182904E-2,-2.854885501E-1,4.090858251E-1,5.082850899E-1
7.691450750E0,-4.299516141E-2,-2.419998837E-1,2.827561462E-1,3.746512589E-1
7.701400750E0,-1.871679112E-2,-1.782570469E-1,5.022992134E-2,1.861422522E-1
7.711349750E0,-2.217424974E-2,-2.494919211E-1,-2.750091702E-1,3.719784398E-1
7.721299750E0,1.960644498E-2,-1.803287154E-1,-3.221997088E-1,3.697506060E-1
7.731249750E0,1.434288378E-1,-6.101160228E-2,-3.044463927E-1,3.420261001E-1
7.741199750E0,2.972075397E-1,-6.177349448E-2,-2.914187962E-1,4.208006666E-1
7.751149750E0,3.619623832E-1,-8.154526949E-3,-3.701813757E-2,3.639417614E-1
7.761098750E0,4.155819355E-1,2.560261846E-2,1.627315199E-1,4.470406992E-1
7.771048750E0,4.145095561E-1,-1.906250775E-2,2.530926365E-1,4.860426257E-1
7.780998750E0,3.892899303E-1,4.803136826E-2,2.461999387E-1,4.631069768E-1
7.790948750E0,2.329052706E-1,4.581059575E-2,1.027724165E-1,2.586612560E-1
7.800898750E0,1.304706770E-1,1.228266120E-2,-7.581558287E-2,1.513983617E-1
7.810847750E0,3.695147932E-2,-1.752995253E-2,-2.406930310E-1,2.441430855E-1
7.820797750E0,6.985814720E-3,-5.208933592E-2,-4.654026979E-1,4.683607282E-1
7.830747750E0,8.721268326E-2,7.068699002E-2,-6.279500306E-1,6.379059049E-1
7.840697750E0,2.195601703E-1,-4.091472208E-2,-6.816678160E-1,7.173225873E-1
7.850647750E0,2.880912919E-1,8.696505368E-2,-5.586271960E-1,6.345264826E-1
7.860597750E0,3.426021060E-1,1.007867020E-1,-4.112411088E-1,5.446589868E-1
7.870546750E0,3.402598576E-1,9.127620578E-2,-2.754687613E-1,4.472037063E-1
7.880496750E0,2.628726894E-1,4.104160666E-3,-1.430527157E-1,2.993041503E-1
7.890446750E0,1.982147634E-1,-5.533337116E-2,7.407662094E-2,2.187195011E-1
7.900396750E0,1.268761012E-1,-1.517001629E-1,2.206055063E-1,2.962722969E-1
7.910346750E0,-3.913950741E-2,-1.370242363E-1,1.978504819E-1,2.438285372E-1
7.920295750E0,-1.697809231E-1,-1.205982381E-1,1.937925142E-1,2.844732596E-1
7.930245750E0,-2.777146769E-1,-1.228763133E-1,2.163475639E-1,3.728676689E-1
7.940195750E0,-3.306626764E-1,-6.891294479E-2,1.494513237E-1,3.693541630E-1
7.950145750E0,-2.573722136E-1,-7.817844272E-2,1.206105173E-1,2.947867401E-1
7.960095750E0,-1.602509849E-1,-9.292979836E-2,9.325197995E-2,2.073939665E-1
7.970045750E0,-9.626110330E-2,-1.611352301E-1,1.483187181E-1,2.392262622E-1
7.979994750E0,-5.551595047E-2,-2.668727696E-1,1.958331925E-1,3.356392933E-1
7.989944750E0,-1.982001454E-2,-3.884188414E-1,2.342920840E-1,4.540427402E-1
7.999894750E0,-3.912094250E-2,-5.399868572E-1,2.755553001E-1,6.074923683E-1
8.009844750E0,-5.842143193E-2,-6.325161213E-1,4.650308150E-1,7.872378080E-1
8.019794750E0,-5.940084055E-2,-7.276953435E-1,6.241411543E-1,9.605317034E-1
8.029743250E0,-3.166296512E-2,-7.814523053E-1,7.839256775E-1,1.107343541E0
8.039693250E0,7.240797177E-2,-8.260361552E-1,9.693964344E-1,1.275659865E0
8.049643250E0,1.827608648E-1,-9.354843378E-1,1.041945178E0,1.412155173E0
8.059593250E0,1.387231448E-1,-9.711886060E-1,1.259567435E0,1.596546755E0
8.069543250E0,8.596868813E-3,-1.067468859E0,1.277064058E0,1.664468768E0
8.079493250E0,-6.037951827E-2,-1.123376427E0,1.354278880E0,1.760594095E0
8.089442250E0,-1.312667754E-1,-1.092586159E0,1.614510382E0,1.953872886E0
8.099392250E0,-1.832283497E-1,-1.066995234E0,1.878437909E0,2.168082202E0
8.109342250E0,-2.321446940E-1,-1.188506223E0,2.166339605E0,2.481827046E0
8.119292250E0,-6.620159090E-2,-1.310638770E0,2.707052101E0,3.008369611E0
8.129242250E0,5.480323336E-1,-1.289856597E0,2.651679554E0,2.999245561E0
8.139191250E0,1.132922299E0,-1.102383753E0,2.242186763E0,2.743385564E0
8.149141250E0,1.512663287E0,-9.471202970E-1,2.073387002E0,2.735712108E0
8.159091250E0,1.657611963E0,-9.665576112E-1,1.827622097E0,2.649927086E0
8.169041250E0,1.716848058E0,-1.028615280E0,2.013084667E0,2.838683943E0
8.178991250E0,1.601570786E0,-1.254027783E0,2.666697543E0,3.353936560E0
8.188941250E0,1.382659510E0,-1.548939705E0,3.317402013E0,3.913581179E0
8.198890250E0,1.356557832E0,-1.587879238E0,3.045647403E0,3.692909115E0
8.208840250E0,1.608015879E0,-1.547322658E0,1.682256807E0,2.794621699E0
8.218790250E0,2.114625075E0,-1.365836779E0,3.670022446E-1,2.543981125E0
8.228740250E0,2.541717401E0,-1.037666185E0,-4.769801849E-1,2.786501132E0
8.238690250E0,2.807398508E0,-9.836194941E-1,-3.165594846E-1,2.991521954E0
8.248639250E0,2.677806083E0,-9.028378710E-1,2.849669784E-1,2.840240803E0
8.258589250E0,2.262680669E0,-9.203128597E-1,1.273735238E0,2.754832305E0
8.268539250E0,1.984795253E0,-1.416124587E0,2.368004225E0,3.398862318E0
8.278489250E0,2.506156974E0,-1.788952705E0,2.947406579E0,4.262438281E0
8.288439250E0,3.577602525E0,-1.687297546E0,2.552049431E0,4.707352667E0
8.298389250E0,4.704001377E0,-1.366403812E0,1.880914205E0,5.247144612E0
8.308338250E0,5.677833509E0,-1.104878321E0,1.187328009E0,5.904938380E0
8.318288250E0,6.127404286E0,-1.279932556E0,5.989536881E-1,6.288247463E0
8.328238250E0,6.144846531E0,-1.873675498E0,4.794874710E-1,6.442026621E0
8.338188250E0,5.786696386E0,-2.643998067E0,6.227278823E-1,6.392524607E0
8.348138250E0,5.370292770E0,-3.490334585E0,8.298660815E-1,6.458417582E0
8.358088250E0,4.880899531E0,-4.096830012E0,1.188294554E-1,6.373485453E0
8.368037250E0,3.947020254E0,-3.095641682E0,-1.849806140E0,5.346377191E0
8.377987250E0,3.167040862E0,-2.163623573E0,-4.875459574E0,6.203347552E0
8.387937250E0,2.879808088E0,-2.280053916E0,-6.493233579E0,7.460162384E0
8.397887250E0,2.112935815E0,-1.233870384E0,-5.865487032E0,6.355381342E0
8.407837250E0,1.714049288E0,-6.913186455E-1,-4.829503675E0,5.171072633E0
8.417786250E0,1.295326082E0,-2.424948505E-1,-3.880388893E0,4.098059464E0
8.427736250E0,8.213794327E-1,-1.656663837E-1,-3.765906258E0,3.857999412E0
8.437686250E0,3.320522672E-1,-5.817517644E-1,-4.280372357E0,4.332468274E0
8.447636250E0,-8.861923099E-2,-6.882943194E-1,-4.443461727E0,4.497327490E0
8.457586250E0,-3.689511216E-1,-1.052027824E0,-4.219639667E0,4.364429676E0
8.467536250E0,-5.971837360E-1,-1.327923140E0,-3.507853428E0,3.798031589E0
8.477486250E0,-8.056317115E-1,-1.520936951E0,-3.107510945E0,3.552311351E0
8.487435250E0,-9.310790455E-1,-1.589994615E0,-3.057978011E0,3.570184951E0
8.497385250E0,-1.003297421E0,-1.567653719E0,-3.175070844E0,3.680382964E0
8.507335250E0,-1.180417185E0,-1.119397543E0,-3.709109913E0,4.050176778E0
8.517285250E0,-1.541037194E0,-8.399298705E-1,-4.001295279E0,4.369283892E0
8.527235250E0,-1.853741024E0,-5.766412979E-1,-4.013193194E0,4.458092707E0
8.537184250E0,-1.972881551E0,-5.095493223E-1,-3.523408191E0,4.070172897E0
8.547134250E0,-1.926413729E0,-6.585350615E-1,-2.914608961E0,3.555233280E0
8.557084250E0,-1.852512524E0,-8.727090691E-1,-2.355259634E0,3.121004921E0
8.567034250E0,-1.742697721E0,-1.081329391E0,-1.937874856E0,2.821635617E0
8.576984250E0,-1.624353585E0,-1.068544600E0,-1.650335687E0,2.550278419E0
8.586934250E0,-1.461388176E0,-9.709898007E-1,-1.483238636E0,2.297492861E0
8.596883250E0,-1.240697885E0,-7.612343878E-1,-1.447075946E0,2.052519873E0
8.606833250E0,-1.012918430E0,-5.460850646E-1,-1.496779472E0,1.888004616E0
8.616783250E0,-7.497036785E-1,-4.157177371E-1,-1.687774240E0,1.893002569E0
8.626733250E0,-4.931448126E-1,-5.260459256E-1,-1.845867894E0,1.981702401E0
8.636683250E0,-3.492150146E-1,-6.065498060E-1,-1.814015772E0,1.944352595E0
8.646633250E0,-4.334114116E-1,-5.193963258E-1,-1.881978983E0,1.999865717E0
8.656582250E0,-6.624041641E-1,-6.353590375E-1,-1.368989890E0,1.648209241E0
8.666532250E0,-8.815174609E-1,-7.611994506E-1,-7.436629200E-1,1.381858233E0
8.676482250E0,-1.053075353E0,-8.650790374E-1,-3.148608685E-1,1.398737576E0
8.686432250E0,-1.188124400E0,-8.600260198E-1,-3.370465203E-1,1.504953388E0
8.696382250E0,-1.168327482E0,-8.966608724E-1,-5.051573324E-1,1.556975836E0
8.706332250E0,-9.994856215E-1,-9.074216495E-1,-6.192634070E-1,1.485218073E0
8.716281250E0,-7.829807675E-1,-8.138309696E-1,-6.612697311E-1,1.308685366E0
8.726231250E0,-5.238374323E-1,-7.501926519E-1,-8.551305116E-1,1.252374889E0
8.736181250E0,-4.000863755E-1,-7.559246774E-1,-1.238392182E0,1.505027050E0
8.746131250E0,-4.004272681E-1,-8.551478340E-1,-1.991381557E0,2.203910234E0
8.756081250E0,-5.833123863E-1,-8.059595941E-1,-2.450330683E0,2.644606712E0
8.766031250E0,-6.837617040E-1,-6.184895280E-1,-2.571072178E0,2.731386371E0
8.775980250E0,-7.073329997E-1,-6.959319524E-1,-2.467464194E0,2.659515145E0
8.785930250E0,-7.313194478E-1,-7.188330111E-1,-2.206856132E0,2.433467283E0
8.795880250E0,-5.945197445E-1,-7.251244690E-1,-2.202808689E0,2.394081315E0
8.805830250E0,-3.648183095E-1,-8.184872536E-1,-2.344619017E0,2.510030303E0
8.815780250E0,-1.938983488E-1,-9.167540250E-1,-2.609332849E0,2.772481276E0
8.825730250E0,-2.204341829E-1,-9.419329396E-1,-2.805014598E0,2.967142698E0
8.835680250E0,-1.434748846E-1,-1.066348679E0,-3.022115868E0,3.207938414E0
8.845629250E0,6.945498168E-2,-1.013238200E0,-2.958726203E0,3.128184200E0
8.855579250E0,3.635085332E-1,-9.567223021E-1,-3.064808729E0,3.231177581E0
8.865529250E0,7.298243147E-1,-7.997307014E-1,-3.104145580E0,3.287542016E0
8.875479250E0,1.407337684E0,-8.798743933E-1,-3.617664430E0,3.980235450E0
8.885429250E0,1.980957141E0,-9.004083529E-1,-4.220811742E0,4.748702787E0
8.895379250E0,2.070176296E0,-9.625975113E-1,-4.765525780E0,5.284170685E0
8.905328250E0,1.878881713E0,-1.165255355E0,-4.857570018E0,5.337040660E0
8.915278250E0,1.454192593E0,-1.298367804E0,-4.092724390E0,4.533302106E0
8.925228250E0,1.274008303E0,-1.494412958E0,-3.379851446E0,3.908933747E0
8.935178250E0,1.611222492E0,-1.416171073E0,-2.921026865E0,3.624082832E0
8.945128250E0,2.351449004E0,-9.240953504E-1,-3.307370530E0,4.161966417E0
8.955078250E0,3.155665104E0,-4.229997133E-1,-4.319876146E0,5.366421613E0
8.965027250E0,3.213220417E0,-6.486022501E-1,-5.003065408E0,5.981315391E0
8.974977250E0,3.055807525E0,-1.671133941E0,-5.559664205E0,6.560526987E0
8.984927250E0,2.993859783E0,-3.139892533E0,-5.733929358E0,7.190275891E0
8.994877250E0,2.887915252E0,-3.636115612E0,-4.345648919E0,6.359721360E0
9.004827250E0,3.027190667E0,-3.565087144E0,-2.033838190E0,5.100022300E0
9.014777250E0,3.713518129E0,-3.392055169E0,7.132293320E-1,5.079857404E0
9.024726250E0,5.370771657E0,-3.900551847E0,-6.901673287E-1,6.673516603E0
9.034677042E0,6.164105505E0,-3.175779526E0,3.183423007E-1,6.941405772E0
9.044627042E0,6.362568775E0,-3.292922937E0,-1.177421072E0,7.260299117E0
9.054577042E0,6.541953750E0,-3.712670867E0,-2.285285420E0,7.861527414E0
9.064527042E0,6.605632852E0,-4.451162218E0,-2.399323082E0,8.318893058E0
9.074477042E0,6.546170762E0,-5.712101117E0,-1.988581910E0,8.912626371E0
9.084427042E0,6.303083296E0,-5.774498509E0,1.280813878E0,8.643736244E0
9.094376042E0,5.401881183E0,-5.144185034E0,4.509123035E0,8.716372556E0
9.104326042E0,4.231472678E0,-4.365357544E0,6.359212473E0,8.797800338E0
9.114276042E0,3.363701436E0,-3.322430618E0,6.798768139E0,8.281079686E0
9.124226042E0,2.813141643E0,-2.384846545E0,5.825728889E0,6.894952940E0
9.134176042E0,2.318687932E0,-1.786752398E0,4.193284512E0,5.113944941E0
9.144126042E0,1.825518561E0,-1.776658934E0,2.584162924E0,3.628626876E0
9.154075042E0,1.450780742E0,-1.845519839E0,1.607687266E0,2.845235769E0
9.164025042E0,1.213693104E0,-1.539315773E0,1.778585007E0,2.646867701E0
9.173975042E0,1.273649138E0,-1.364788665E0,1.979439788E0,2.720847681E0
9.183925042E0,1.667857015E0,-1.337914862E0,1.812253860E0,2.802860548E0
9.193875042E0,1.824353211E0,-1.059261122E0,1.669992857E0,2.690571483E0
9.203825042E0,1.607780821E0,-7.829620564E-1,1.503113322E0,2.336094692E0
9.213775042E0,1.324144377E0,-5.605047369E-1,1.521188820E0,2.093212678E0
9.223724042E0,1.002827963E0,-5.097134829E-1,1.623502815E0,1.975153955E0
9.233674042E0,6.526951548E-1,-3.948192036E-1,1.881905308E0,2.030630630E0
9.243624042E0,1.900433161E-1,-3.046691716E-1,1.956365506E0,1.989046445E0
9.253574042E0,-1.463101264E-1,-2.127088416E-1,1.469987676E0,1.492486339E0
9.263524042E0,-5.467877537E-4,-1.342146492E-1,5.318101108E-1,5.484850636E-1
9.273474042E0,4.803092606E-1,-3.345893741E-2,-1.191083676E-1,4.959871869E-1
9.283423042E0,9.125323353E-1,-1.492343920E-1,-4.782525390E-1,1.041014725E0
9.293373042E0,1.057231408E0,-2.147892809E-1,-3.358570504E-1,1.129899395E0
9.303323042E0,1.030067144E0,-7.759781420E-2,1.412722385E-1,1.042601356E0
9.313273042E0,1.000931419E0,-2.668487960E-1,5.272773492E-1,1.162365428E0
9.323223042E0,8.450225030E-1,-2.893167222E-1,7.021804333E-1,1.136144602E0
9.333173042E0,5.895348104E-1,-3.523953152E-1,5.831001323E-1,9.009658791E-1
9.343123042E0,2.170649807E-1,-2.540387160E-1,5.002304685E-1,6.015674498E-1
9.353072042E0,-3.242330050E-1,-2.694262487E-1,-3.283796310E-2,4.228426147E-1
9.363022042E0,-5.678987604E-1,-2.734830469E-1,-7.329098904E-1,9.666741366E-1
9.372972042E0,-4.062214203E-1,-9.070961058E-2,-1.221898502E0,1.290844694E0
9.382922042E0,-6.393323667E-2,1.205035132E-1,-1.251683634E0,1.259095102E0
9.392872042E0,3.339038611E-1,3.040511209E-1,-7.723680711E-1,8.947017994E-1
9.402822042E0,6.711328876E-1,3.327305442E-1,-2.708956540E-1,7.965635086E-1
9.412772042E0,8.573404668E-1,1.198041862E-1,2.623826927E-1,9.045608860E-1
9.422721042E0,8.634072454E-1,7.556356788E-3,7.550100267E-1,1.146982698E0
9.432671042E0,6.380657867E-1,1.028858525E-1,1.072227908E0,1.251952928E0
9.442621042E0,3.051776601E-1,4.308637798E-2,9.246202111E-1,9.746344828E-1
9.452571042E0,3.311095499E-2,8.638208628E-2,6.607751298E-1,6.672195833E-1
9.462521042E0,-2.437604072E-1,6.263712823E-2,1.237457943E-1,2.804559993E-1
9.472471042E0,-4.976006102E-1,-5.912879884E-2,-4.713814759E-1,6.879702595E-1
9.482420042E0,-7.473200610E-1,-8.537168741E-2,-9.525628853E-1,1.213734588E0
9.492370042E0,-7.884707183E-1,-2.278098607E-1,-1.077561153E0,1.354518898E0
9.502320042E0,-5.785571381E-1,-1.718964458E-1,-7.247845995E-1,9.431805055E-1
9.512270042E0,-1.859986143E-1,-2.408222544E-1,-3.400810790E-1,4.563397671E-1
9.522220042E0,2.813237245E-1,-1.587618452E-1,2.277180594E-1,3.952263606E-1
9.532170042E0,7.226269770E-1,-2.349715304E-1,4.943949473E-1,9.065471482E-1
9.542120042E0,9.760391638E-1,-1.680688584E-1,7.583628201E-1,1.247402805E0
9.552069042E0,1.085323040E0,-1.588016063E-1,7.426361489E-1,1.324632968E0
9.562019042E0,1.021599206E0,-7.877368927E-2,3.851666200E-1,1.094633983E0
9.571969042E0,6.695196408E-1,-1.213548678E-1,-5.495447159E-2,6.826445249E-1
9.581919042E0,2.275976068E-1,-3.334433198E-2,-2.506338823E-1,3.401909141E-1
9.591869042E0,8.763660640E-3,1.284165502E-2,-4.384827018E-1,4.387582359E-1
9.601819042E0,-2.453608632E-2,-6.086659133E-2,-4.870075750E-1,4.914093402E-1
9.611769042E0,-4.564555809E-2,4.679000437E-2,-1.073209655E-1,1.256606984E-1
9.621718042E0,4.037253901E-2,8.678671360E-2,2.963719726E-2,1.002009931E-1
9.631668042E0,2.553619409E-1,8.069742322E-2,-7.839946747E-3,2.679239812E-1
9.641618042E0,5.171882710E-1,1.342128950E-1,-1.236627638E-1,5.484426023E-1
9.651568042E0,6.671446480E-1,6.085723579E-2,-3.389256692E-1,7.507704001E-1
9.661518042E0,6.878801903E-1,2.137508154E-2,-3.789206243E-1,7.856315229E-1
9.671468042E0,5.918914211E-1,3.600890815E-2,-3.942818445E-1,7.121027094E-1
9.681418042E0,4.077395037E-1,-1.627397060E-2,-4.715077758E-1,6.235670995E-1
9.691367042E0,8.912340716E-2,1.230546534E-2,-5.872101402E-1,5.940624167E-1
9.701317042E0,-5.322340339E-2,-2.157213271E-2,-7.005303490E-1,7.028804005E-1
9.711267042E0,-3.093323261E-2,-2.804266155E-2,-7.729656565E-1,7.740924763E-1
9.721217042E0,-4.237652600E-2,-3.272686601E-2,-5.914382619E-1,5.938569148E-1
9.731167042E0,-3.411002487E-2,-3.046750188E-2,-3.578858507E-1,3.607964032E-1
9.741117042E0,4.851712570E-2,-1.244457060E-1,-2.107172799E-1,2.494843027E-1
9.751067042E0,1.720877959E-1,-1.571094221E-1,-4.349392891E-2,2.370428270E-1
9.761016042E0,2.520513935E-1,-1.326943731E-1,1.835563785E-1,3.388667079E-1
9.770966042E0,2.450913066E-1,-1.592430711E-1,2.076925153E-1,3.585586216E-1
9.780916042E0,1.739983005E-1,-7.779311121E-2,1.311974859E-1,2.313870287E-1
9.790866042E0,1.430294730E-1,2.915246308E-2,2.016365540E-1,2.489268892E-1
9.800816042E0,-2.839795299E-2,1.967646539E-2,2.863673866E-1,2.884439064E-1
9.810766042E0,-3.833570530E-1,-9.459625483E-2,2.306182784E-1,4.572700207E-1
9.820716042E0,-6.265274030E-1,-1.278791910E-1,-4.772497416E-2,6.412233210E-1
9.830666042E0,-6.032660097E-1,-2.163329458E-1,-2.435108042E-1,6.855853949E-1
9.840615042E0,-5.146137419E-1,-3.012514740E-1,-1.946292508E-1,6.272641383E-1
9.850565042E0,-4.906078519E-1,-2.542345977E-1,1.807286650E-1,5.813726390E-1
9.860515042E0,-4.178224424E-1,-2.521173209E-1,5.818862504E-1,7.594276432E-1
9.870465042E0,-2.419652389E-1,-3.535869777E-1,7.158769512E-1,8.342965522E-1
9.880415042E0,-7.992676020E-2,-3.642979074E-1,7.675885570E-1,8.534011045E-1
9.890365042E0,1.561494555E-1,-3.015298015E-1,6.111106342E-1,6.991130673E-1
9.900315042E0,4.195362613E-1,-2.947511244E-1,2.479874325E-1,5.695495295E-1
9.910265042E0,5.314459755E-1,-2.569067752E-1,1.014842749E-1,5.989448840E-1
9.920214042E0,2.571387635E-1,-2.181028980E-1,-5.309330285E-2,3.413328531E-1
9.930164042E0,-1.800246602E-1,-2.334530085E-1,-3.230990106E-1,4.373810194E-1
9.940114042E0,-3.719193144E-1,-2.536527997E-1,-4.472447544E-1,6.345798528E-1
9.950064042E0,-3.389256692E-1,-2.080912954E-1,-2.182063937E-2,3.983073396E-1
9.960014042E0,-3.052547702E-1,-1.868156165E-1,3.957793164E-1,5.335933064E-1
9.969964042E0,-2.419267935E-1,-1.924359602E-1,5.217797971E-1,6.064769813E-1
9.979914042E0,-5.606456548E-2,-4.609710932E-2,6.885745472E-1,6.923894034E-1
9.989863042E0,1.404219072E-1,5.948372483E-3,5.335818172E-1,5.517818869E-1
9.999813042E0,3.387992232E-1,3.777418256E-2,2.127170277E-1,4.018212741E-1
1.000976304E1,4.913032320E-1,8.473901868E-2,-2.040344971E-1,5.386925311E-1
1.001971304E1,5.875503020E-1,4.109949410E-2,-4.784104139E-1,7.588023787E-1
1.002966304E1,5.104609032E-1,5.748397708E-2,-4.607021213E-1,6.900153519E-1
1.003961275E1,2.137727425E-1,-3.647317708E-2,-4.853738630E-1,5.316172165E-1
1.004956275E1,-1.232997979E-1,-1.239229649E-1,-6.127741671E-1,6.372220345E-1
1.005951275E1,-2.306871293E-1,-1.142697966E-1,-6.758474976E-1,7.232177943E-1
1.006946275E1,-1.498126817E-1,-1.163174915E-1,-6.339153600E-1,6.616814052E-1
1.007941175E1,1.719753832E-2,-8.537110269E-2,-4.514249289E-1,4.597482430E-1
1.008936175E1,1.979377516E-1,-7.907599032E-2,-1.488660175E-1,2.599874168E-1
1.009931175E1,4.221593222E-1,-1.211531389E-1,3.787826300E-3,4.392162611E-1
1.010926175E1,5.866229336E-1,-7.021336555E-2,6.155130029E-2,5.940075298E-1
1.011921175E1,6.336873186E-1,-2.112599015E-3,4.016861737E-2,6.349626750E-1
1.012916175E1,5.737045339E-1,2.035415769E-2,-4.331851244E-2,5.756975573E-1
1.013911175E1,3.818338533E-1,-2.846424580E-3,-1.658855081E-2,3.822046228E-1
1.014906175E1,-1.574874446E-2,-3.822032511E-2,-7.228620350E-2,8.327131211E-2
1.015901075E1,-3.815087481E-1,-5.918376267E-2,-1.338667399E-1,4.086220095E-1
1.016896075E1,-4.694727986E-1,-6.284061134E-2,-1.942059124E-1,5.119273263E-1
1.017891075E1,-3.490580168E-1,-1.044371188E-1,-1.412406635E-1,3.907653208E-1
1.018886075E1,-2.388121279E-1,-9.417525530E-2,4.063464046E-2,2.599064930E-1
1.019881075E1,-8.903979197E-2,-1.219121075E-1,2.446662140E-1,2.874929613E-1
1.020876075E1,3.089946494E-2,-7.946541488E-2,2.605074906E-1,2.741052385E-1
1.021871075E1,7.100580946E-2,-4.631813407E-2,1.642067724E-1,1.848000504E-1
1.022866075E1,1.284288293E-1,-6.947544694E-2,-4.099424422E-2,1.516618936E-1
1.023861075E1,1.898577766E-1,-1.195188421E-1,-2.190501469E-1,3.135501488E-1
1.024855975E1,1.814448027E-1,-2.013611501E-1,-2.353165162E-1,3.589462244E-1
1.025850975E1,3.846269220E-2,-2.818457347E-1,-1.950976127E-1,3.449340160E-1
1.026845975E1,-1.447475311E-1,-3.429503077E-1,-1.328522480E-1,3.952423068E-1
1.027840975E1,-2.046300361E-1,-3.431286478E-1,-1.312816858E-2,3.997287448E-1
1.028835975E1,-1.546626547E-1,-2.584229583E-1,1.339164412E-1,3.296006301E-1
1.029830975E1,-3.867158398E-2,-2.122913504E-1,3.484659863E-1,4.098678475E-1
1.030825975E1,1.009552480E-1,-1.105778646E-1,5.714179802E-1,5.907096870E-1
1.031820975E1,2.835654008E-1,-7.121265471E-2,5.827826285E-1,6.520093334E-1
1.032815875E1,4.017578021E-1,-1.050247639E-1,3.468118089E-1,5.410341610E-1
1.033810875E1,4.339554951E-1,-4.743729115E-2,1.062614501E-1,4.492873958E-1
1.034805875E1,4.228121638E-1,-1.573719621E-2,-1.551734090E-1,4.506623704E-1
1.035800875E1,3.158763836E-1,1.723057508E-2,-5.035633814E-1,5.946855149E-1
1.036795875E1,1.546975918E-1,4.632456601E-2,-7.256371236E-1,7.433885562E-1
1.037790875E1,8.708229035E-2,1.341877520E-2,-7.229029655E-1,7.282527627E-1
1.038785875E1,1.088165371E-1,-4.782437682E-3,-4.306895328E-1,4.442492364E-1
1.039780875E1,1.555803752E-1,4.554513216E-2,-1.548927426E-1,2.242127872E-1
1.040775875E1,2.014976826E-1,3.456873894E-3,-1.012422001E-1,2.255288212E-1
1.041770775E1,2.180514425E-1,-6.217987597E-2,-2.261469126E-1,3.202423998E-1
1.042765775E1,2.459923625E-1,4.093050957E-5,-3.392870271E-1,4.190798621E-1
1.043760775E1,2.743446341E-1,3.001375794E-2,-4.460601085E-1,5.245335303E-1
1.044755775E1,2.538878578E-1,-7.057589293E-4,-4.965303504E-1,5.576754714E-1
1.045750775E1,1.392365304E-1,2.476295829E-3,-3.642183852E-1,3.899332963E-1
1.046745775E1,6.969881058E-2,-1.488701105E-3,-2.038304293E-1,2.154228037E-1
1.047740775E1,2.560831949E-2,-2.940447807E-2,-2.324683374E-1,2.357157976E-1
1.048735775E1,-3.028857708E-4,-8.335907578E-2,-2.974262255E-1,3.088870132E-1
1.049730775E1,4.212699607E-2,-1.103615177E-1,-1.948707408E-1,2.278792531E-1
1.050725775E1,9.951917186E-2,-9.053536355E-2,-1.194726491E-1,1.799289624E-1
1.051720675E1,1.926862210E-1,-8.413441658E-2,-6.417553067E-2,2.198296580E-1
1.052715675E1,2.271833315E-1,-7.309838176E-2,1.621736956E-1,2.885410665E-1
1.053710675E1,1.721060684E-1,-5.211038589E-2,3.614374495E-1,4.036991714E-1
1.054705675E1,3.339052498E-2,-3.125395238E-2,4.813392842E-1,4.835072318E-1
1.055700675E1,-8.228771970E-2,-5.231386900E-2,4.384932268E-1,4.492040957E-1
1.056695675E1,-1.523595826E-1,-1.082769853E-1,2.361129069E-1,3.011422468E-1
1.057690675E1,-2.603933237E-1,-1.379697311E-1,5.398324907E-2,2.995905889E-1
1.058685675E1,-2.286593150E-1,-1.518346488E-1,-1.207900268E-1,2.998817658E-1
1.059680675E1,-1.577824366E-1,-2.554777157E-1,-2.599578524E-1,3.971677801E-1
1.060675675E1,-7.161918238E-2,-3.604422534E-1,-2.877666253E-1,4.667521354E-1
1.061670575E1,4.647571653E-2,-3.370183074E-1,-8.857888520E-2,3.515502108E-1
1.062665575E1,2.428357431E-1,-3.210226643E-1,9.816013277E-2,4.143189120E-1
1.063660575E1,4.264837767E-1,-3.848076010E-1,3.066847068E-1,6.511688037E-1
1.064655575E1,5.022989210E-1,-4.240851027E-1,5.942969656E-1,8.861948227E-1
1.065650575E1,4.994590746E-1,-4.637800956E-1,7.938647747E-1,1.046313827E0
1.066645575E1,4.710971551E-1,-5.232439399E-1,9.187618858E-1,1.157514645E0
1.067640575E1,4.138738176E-1,-5.811559331E-1,9.429196572E-1,1.182425996E0
1.068635575E1,3.313894853E-1,-5.827744424E-1,1.013550514E0,1.215207672E0
1.069630575E1,2.776598592E-1,-5.749315721E-1,1.036057616E0,1.216986727E0
1.070625475E1,1.201213977E-1,-5.360914421E-1,9.794764495E-1,1.123030409E0
1.071620475E1,-3.226829812E-2,-4.923156774E-1,9.882086813E-1,1.104523593E0
1.072615475E1,-2.358152837E-2,-4.120322371E-1,8.934229767E-1,9.841398621E-1
1.073610475E1,1.106543170E-1,-3.123623532E-1,7.774609959E-1,8.451391706E-1
1.074605475E1,2.593665527E-1,-2.629153740E-1,6.211380243E-1,7.226395698E-1
1.075600475E1,3.559470601E-1,-3.104356956E-1,4.933471262E-1,6.829787828E-1
1.076595475E1,3.373135918E-1,-3.493524241E-1,4.882927930E-1,6.886635080E-1
1.077590475E1,2.956792237E-1,-5.532729006E-1,5.997956872E-1,8.679239438E-1
1.078585475E1,2.142364267E-1,-6.713007027E-1,9.045724475E-1,1.146644318E0
1.079580475E1,9.017385945E-2,-7.685451615E-1,1.340208725E0,1.547563380E0
1.080575475E1,5.043969020E-2,-8.858268589E-1,1.792055238E0,1.999673814E0
1.081570375E1,1.367730984E-1,-1.038416383E0,2.094697765E0,2.341959477E0
1.082565375E1,2.129839531E-1,-1.080044466E0,2.159836916E0,2.424201666E0
1.083560375E1,4.865560238E-1,-9.768376011E-1,1.905208801E0,2.195624977E0
1.084555375E1,8.106474531E-1,-8.076718050E-1,1.449516574E0,1.846775930E0
1.085550375E1,1.038682724E0,-8.681764537E-1,9.677890348E-1,1.664093679E0
1.086545375E1,1.094527142E0,-7.592597830E-1,9.825187558E-1,1.655236596E0
1.087540375E1,1.082986785E0,-9.563805324E-1,1.452577592E0,2.048781530E0
1.088535375E1,1.071266041E0,-1.060063653E0,2.124590485E0,2.604847521E0
1.089530375E1,1.018877912E0,-1.019477544E0,2.025954389E0,2.486350307E0
1.090525375E1,1.197306867E0,-1.069611571E0,1.320233467E0,2.078612290E0
1.091520375E1,1.396446953E0,-9.821123743E-1,6.809649807E-1,1.838021249E0
1.092515275E1,1.444084218E0,-7.731627077E-1,5.572653794E-1,1.730232500E0
1.093510275E1,1.428300245E0,-7.148680142E-1,6.503366804E-1,1.724533463E0
1.094505275E1,1.518559327E0,-7.127276409E-1,7.478834403E-1,1.836663486E0
1.095500275E1,1.939484594E0,-1.045247101E0,7.157833958E-1,2.316568122E0
1.096495275E1,2.752248155E0,-1.400230686E0,1.026445379E0,3.254090656E0
1.097490275E1,3.914484007E0,-1.389237336E0,1.509080406E0,4.419331294E0
1.098485275E1,5.066894199E0,-1.360585102E0,1.582822566E0,5.479957656E0
1.099480275E1,5.773229663E0,-1.426481907E0,1.885514794E0,6.238605406E0
1.100475275E1,5.847310962E0,-1.643297979E0,2.302201415E0,6.495506530E0
1.101470275E1,5.511604770E0,-1.995164998E0,2.466499988E0,6.359409776E0
1.102465275E1,4.942437968E0,-2.813228182E0,2.497941052E0,6.211413315E0
1.103460138E1,4.323704318E0,-3.555790071E0,2.454729543E0,6.112590220E0
1.104455138E1,3.792536817E0,-4.201992770E0,2.396636871E0,6.146864814E0
1.105450138E1,3.792489454E0,-4.499802573E0,1.817718960E0,6.159164040E0
1.106445138E1,3.987998711E0,-3.985689061E0,3.981725818E-1,5.652290899E0
1.107440138E1,4.084616933E0,-2.647356707E0,-1.968335341E0,5.250422558E0
1.108435138E1,4.433689275E0,-2.508385348E0,-4.026304990E0,6.493129409E0
1.109430138E1,4.516081222E0,-2.311113302E0,-4.639188792E0,6.874467757E0
1.110425138E1,3.645547171E0,-1.322662108E0,-4.204385451E0,5.719816977E0
1.111420138E1,2.784686753E0,-5.804717358E-1,-3.668971117E0,4.642496829E0
1.112415137E1,1.784408834E0,-5.414314118E-1,-4.064573847E0,4.471914961E0
1.113410138E1,1.008910164E0,-7.916013175E-1,-4.202783314E0,4.394077827E0
1.114405138E1,6.592238635E-1,-1.093024407E0,-3.962851006E0,4.163347998E0
1.115400138E1,7.471262258E-1,-1.260154349E0,-3.820085388E0,4.091361504E0
1.116395038E1,9.390844685E-1,-1.245171151E0,-3.972797120E0,4.267955926E0
1.117390038E1,9.709909701E-1,-1.178146857E0,-4.829616526E0,5.065180083E0
1.118385038E1,8.956203604E-1,-9.730246317E-1,-5.674209405E0,5.826282274E0
1.119380038E1,7.434746397E-1,-7.753005959E-1,-5.937259265E0,6.033646753E0
1.120375038E1,3.427041399E-1,-6.198248859E-1,-6.032060173E0,6.073498081E0
1.121370038E1,-1.544916236E-1,-7.712397046E-1,-5.671381692E0,5.725665781E0
1.122365038E1,-5.258862966E-1,-1.041812154E0,-5.076947901E0,5.209350147E0
1.123360038E1,-9.115779966E-1,-1.406067669E0,-4.498714406E0,4.800669958E0
1.124355038E1,-1.369011524E0,-1.731750125E0,-3.676689441E0,4.288495808E0
1.125350038E1,-1.819578667E0,-1.917685444E0,-3.164861605E0,4.123679542E0
1.126345038E1,-2.197973626E0,-2.000766630E0,-2.791826788E0,4.077799895E0
1.127340038E1,-2.518126225E0,-1.874152192E0,-2.490694013E0,4.007114022E0
1.128335038E1,-2.687961527E0,-1.687843091E0,-2.673522413E0,4.149900428E0
1.129329938E1,-2.733745226E0,-1.489355262E0,-3.032617468E0,4.346068426E0
1.130324938E1,-2.629503404E0,-1.175826828E0,-3.401874983E0,4.457534103E0
1.131319937E1,-2.347945352E0,-9.763892658E-1,-3.665967987E0,4.461558545E0
1.132314938E1,-2.065609621E0,-9.870120487E-1,-3.793686379E0,4.430913251E0
1.133309938E1,-1.866862176E0,-1.153740871E0,-3.692509668E0,4.295453414E0
1.134304938E1,-1.910555495E0,-1.311633236E0,-3.505910983E0,4.202620119E0
1.135299937E1,-2.151379504E0,-1.350775521E0,-3.028998041E0,3.953208495E0
1.136294938E1,-2.374962997E0,-1.501121176E0,-2.540643268E0,3.787965448E0
1.137289938E1,-2.594240016E0,-1.479928381E0,-2.072937351E0,3.635565779E0
1.138284938E1,-2.665486584E0,-1.469473706E0,-1.262279373E0,3.295075253E0
1.139279938E1,-2.444677595E0,-1.327888495E0,-5.000865539E-1,2.826627489E0
1.140274938E1,-1.900139850E0,-1.102899039E0,-1.788067583E-1,2.204288909E0
1.141269938E1,-1.253289864E0,-9.339906666E-1,-6.329656991E-1,1.686333189E0
1.142264838E1,-6.933464599E-1,-9.021864912E-1,-1.542619450E0,1.916857988E0
1.143259838E1,-3.334725559E-1,-9.369475304E-1,-2.227987823E0,2.439877939E0
1.144254838E1,-1.601447117E-1,-1.192610311E0,-2.463112696E0,2.741329939E0
1.145249838E1,-5.863763273E-2,-1.229838144E0,-2.203137302E0,2.523837199E0
1.146244838E1,1.298081875E-4,-1.592019359E0,-1.637749117E0,2.284020102E0
1.147239838E1,1.904221791E-1,-1.687547075E0,-7.976034844E-1,1.876232144E0
1.148234838E1,6.767397827E-1,-1.531088156E0,-2.901107740E-1,1.698932587E0
1.149229838E1,1.303140301E0,-1.310637016E0,-5.358680054E-1,1.924343668E0
1.150224838E1,1.936537598E0,-9.518552260E-1,-1.365115525E0,2.553379454E0
1.151219838E1,2.380607899E0,-6.936374319E-1,-2.314367716E0,3.391861551E0
1.152214838E1,2.299818090E0,-5.362340411E-1,-2.885729563E0,3.728826264E0
1.153209837E1,1.969064489E0,-5.470050509E-1,-3.060981141E0,3.680493858E0
1.154204838E1,2.206330467E0,-5.061275682E-1,-2.544772571E0,3.405866510E0
1.155199838E1,3.219521377E0,-4.599487075E-1,-2.367854244E0,4.022885088E0
1.156194838E1,4.297196551E0,-3.045878222E-1,-2.416622362E0,4.939507625E0
1.157189738E1,5.238655574E0,-5.592125022E-1,-2.797236340E0,5.964961189E0
1.158184738E1,5.509462350E0,-1.031226866E0,-3.493576866E0,6.604747047E0
1.159179738E1,4.810861582E0,-1.478162230E0,-3.587092556E0,6.180338643E0
1.160174738E1,3.524519747E0,-1.870304432E0,-2.828449946E0,4.890849335E0
1.161169738E1,2.265783786E0,-2.112261339E0,-1.142548277E0,3.301642121E0
1.162164738E1,1.564815481E0,-1.917178636E0,6.436769941E-1,2.557057192E0
1.163159738E1,1.804707443E0,-1.391179634E0,1.501771971E0,2.729041734E0
1.164154738E1,2.785682534E0,-6.890255137E-1,8.791592789E-1,3.001283788E0
1.165149738E1,3.852897039E0,6.128262073E-2,-3.951788074E-1,3.873594899E0
1.166144738E1,4.263449346E0,6.295477822E-3,-1.213199599E0,4.432707212E0
1.167139738E1,3.729864605E0,-8.125932603E-1,-1.317702792E0,4.038383145E0
1.168134738E1,2.785277907E0,-1.857052302E0,-4.599004680E-1,3.379041981E0
1.169129738E1,1.563090552E0,-2.996984535E0,1.114416153E0,3.559085802E0
1.170124738E1,6.416114652E-1,-3.376230557E0,2.941899086E0,4.523866519E0
1.171119737E1,6.659621948E-1,-3.109175355E0,4.209286003E0,5.275278730E0
1.172114738E1,1.527143040E0,-2.348953997E0,4.631057362E0,5.412618870E0
1.173109638E1,2.855018232E0,-1.167934256E0,3.526163984E0,4.684979400E0
1.174104638E1,3.642718872E0,-6.332897079E-1,1.470961238E0,3.979218969E0
1.175099638E1,3.943704298E0,-9.792253116E-1,5.736527860E-2,4.063862273E0
1.176094637E1,3.626317433E0,-1.940243271E0,-2.076878375E-1,4.117991781E0
1.177089638E1,2.762201285E0,-2.495000779E0,7.692871732E-1,3.800866689E0
1.178084638E1,2.155517286E0,-2.986932587E0,2.202148538E0,4.291559068E0
1.179079638E1,1.784446549E0,-3.012484335E0,3.554677346E0,4.989493200E0
1.180074638E1,1.893535420E0,-2.917384050E0,4.637488130E0,5.796801035E0
1.181069638E1,2.179373633E0,-2.174348536E0,5.025545613E0,5.893519297E0
1.182064638E1,2.329874240E0,-1.642766467E0,4.582663466E0,5.397017703E0
1.183059638E1,2.147815333E0,-1.355621985E0,3.652598328E0,4.448853360E0
1.184054638E1,1.538086981E0,-8.164806354E-1,2.647399392E0,3.168765648E0
1.185049638E1,7.983071968E-1,-6.728391051E-1,1.615795015E0,1.923746442E0
1.186044638E1,1.685696724E-1,-5.947834539E-1,1.068463470E0,1.234421840E0
1.187039638E1,-1.365260535E-1,-6.106691694E-1,1.145510477E0,1.305277921E0
1.188034638E1,-8.909402490E-3,-8.344035208E-1,1.155988687E0,1.425699287E0
1.189029538E1,2.152225596E-1,-7.238192242E-1,1.453072851E0,1.637576175E0
1.190024537E1,3.844091132E-1,-7.458965564E-1,1.915637895E0,2.091363331E0
1.191019538E1,2.064438424E-1,-6.220314789E-1,2.013338436E0,2.117327060E0
1.192014538E1,-1.987053448E-1,-3.504511160E-1,1.748156682E0,1.793976472E0
1.193009538E1,-4.793421677E-1,-2.089449888E-1,1.249441227E0,1.354448338E0
1.194004537E1,-4.853349790E-1,-9.592766583E-2,6.355367929E-1,8.053938006E-1
1.194999538E1,-3.110043374E-1,-4.359099269E-2,1.989737320E-1,3.717719980E-1
1.195994538E1,-3.008217037E-2,-1.997584283E-2,7.681779563E-2,8.488194742E-2
1.196989538E1,2.720425853E-1,2.495240808E-2,1.863302976E-1,3.306792565E-1
1.197984537E1,4.810463387E-1,4.410437822E-2,2.129164177E-1,5.279054622E-1
1.198979538E1,4.431139889E-1,-4.105330110E-2,3.869728249E-1,5.897315898E-1
1.199974538E1,1.602561012E-1,-2.769165319E-1,6.738348860E-1,7.459344724E-1
1.200969538E1,-3.506566456E-1,-5.297103757E-1,6.991042131E-1,9.446162533E-1
1.201964538E1,-9.926356083E-1,-4.623948902E-1,9.073393500E-1,1.422110819E0
1.202959538E1,-1.365983836E0,-5.463550597E-1,7.650292307E-1,1.658217542E0
1.203954554E1,-1.322657722E0,-4.883109194E-1,6.281786567E-1,1.543528240E0
1.204949454E1,-1.070218512E0,-4.246019965E-1,4.490725940E-1,1.235848176E0
1.205944454E1,-6.701862234E-1,-3.596663278E-1,1.483982402E-1,7.749396616E-1
1.206939454E1,-2.027934256E-1,-2.012044448E-1,-4.801031828E-2,2.896780847E-1
1.207934454E1,1.475112176E-1,-4.418857813E-2,-3.040821111E-1,3.408491163E-1
1.208929454E1,3.281840417E-1,1.660667717E-2,-4.190816402E-1,5.325504372E-1
1.209924454E1,3.724652982E-1,-5.833767056E-3,-4.578679758E-1,5.902605480E-1
1.210919454E1,3.252332443E-1,-2.268538409E-1,-3.287205237E-1,5.150694235E-1
1.211914454E1,9.964883387E-2,-2.312889540E-1,7.845910907E-2,2.637807842E-1
1.212909454E1,-1.452398667E-1,-2.740905726E-1,2.807277471E-1,4.183638713E-1
1.213904454E1,-3.055114630E-1,-2.017464817E-1,2.506169254E-1,4.436752643E-1
1.214899454E1,-3.106833252E-1,-1.744820845E-1,2.828461933E-1,4.549396613E-1
1.215894454E1,-2.570997334E-1,-1.631718153E-1,1.734348482E-1,3.504353874E-1
1.216889454E1,-1.947181284E-1,5.597831905E-2,-8.914489567E-2,2.213493487E-1
1.217884454E1,2.866129696E-2,1.289311051E-1,-3.317166370E-1,3.570442929E-1
1.218879454E1,2.451945099E-1,1.777460003E-1,-4.450695902E-1,5.383316157E-1
1.219874454E1,4.376369020E-1,1.190604204E-1,-4.256544954E-1,6.219993498E-1
1.220869454E1,4.931620619E-1,7.348605216E-2,-2.504380006E-1,5.579679303E-1
1.221864354E1,5.023550543E-1,3.609603167E-2,-2.732637763E-2,5.043909744E-1
1.222859354E1,5.775689587E-1,-1.105638313E-1,1.196316934E-1,6.001016621E-1
1.223854354E1,5.468552890E-1,-1.748837882E-1,1.170934170E-1,5.859572637E-1
1.224849354E1,4.723296019E-1,-1.833815467E-1,4.236307740E-2,5.084473177E-1
1.225844354E1,3.848634419E-1,-1.052071971E-1,1.154825091E-2,3.991513313E-1
1.226839354E1,3.134946665E-1,-9.060085237E-2,-1.135605294E-1,3.455190504E-1
1.227834354E1,1.648979133E-1,5.955973864E-3,-2.863603699E-1,3.304981950E-1
1.228829354E1,1.977235973E-3,7.334454954E-2,-3.063894224E-1,3.150520760E-1
1.229824354E1,-7.717506051E-2,5.771318793E-2,-2.880005139E-1,3.036957327E-1
1.230819354E1,-5.818271935E-3,-2.354030550E-2,-2.661190635E-1,2.672215452E-1
1.231814354E1,-1.630466849E-2,4.846523166E-2,-4.037104797E-1,4.069359561E-1
1.232809354E1,-2.555204004E-2,1.135722238E-1,-2.104956704E-1,2.405410236E-1
1.233804354E1,-8.826313555E-2,2.230128050E-3,-2.122919351E-1,2.299200302E-1
1.234799354E1,-2.487542948E-1,-8.064012051E-2,-1.181125867E-1,2.869357269E-1
1.235794354E1,-4.921294436E-1,-2.211504668E-1,-1.988024086E-1,5.749967964E-1
1.236789354E1,-6.686481133E-1,-2.032673424E-1,-1.000125307E-1,7.059818824E-1
1.237784354E1,-6.567806044E-1,-2.741607392E-1,-9.824199378E-2,7.184541479E-1
1.238779254E1,-5.607748783E-1,-2.937711310E-1,-2.035357296E-1,6.649787476E-1
1.239774254E1,-5.710849813E-1,-3.048328936E-1,-2.966625792E-1,7.120883616E-1
1.240769254E1,-5.524697855E-1,-2.581990099E-1,-3.669127822E-1,7.116983788E-1
1.241764254E1,-3.200078800E-1,-2.558993000E-1,-4.653068036E-1,6.199999326E-1
1.242759254E1,-7.439763308E-2,-2.414403051E-1,-4.966502184E-1,5.572161772E-1
1.243754254E1,1.887881747E-1,-2.843723166E-1,-3.143340343E-1,4.640199074E-1
1.244749254E1,2.856446707E-1,-2.956054026E-1,-1.069718868E-1,4.247568911E-1
1.245744254E1,1.897251910E-1,-3.003276139E-1,5.063396394E-2,3.588260332E-1
1.246739254E1,2.160400003E-2,-3.838515812E-1,1.006013453E-1,3.974033214E-1
1.247734254E1,-8.969453394E-2,-4.189968556E-1,9.214217842E-2,4.382849022E-1
1.248729254E1,-1.242445618E-1,-3.429924077E-1,2.683772582E-1,4.528872438E-1
1.249724254E1,-9.832648605E-2,-3.467773104E-1,2.254610342E-1,4.251532415E-1
1.250719254E1,-2.280881882E-2,-2.072662532E-1,2.828608114E-1,3.514111275E-1
1.251714254E1,6.669977367E-2,-1.185452807E-1,2.977665335E-1,3.273633331E-1
1.252709254E1,9.312363356E-2,-9.111540735E-2,2.014921278E-1,2.399439646E-1
1.253704254E1,3.933012664E-2,-4.731800795E-2,1.244188088E-1,1.388016308E-1
1.254699254E1,-1.622456163E-2,-1.371575528E-1,-2.155739772E-1,2.560225974E-1
1.255694254E1,-1.259490252E-2,-9.488569200E-2,-2.870544344E-1,3.025924230E-1
1.256689254E1,2.552280396E-2,-6.530696690E-2,-2.519442433E-1,2.615192444E-1
1.257684154E1,6.345983148E-2,-5.197940826E-2,-2.547941762E-1,2.676734603E-1
1.258679154E1,9.295055598E-2,-4.315829873E-2,-2.217901522E-1,2.443221566E-1
1.259674154E1,1.627356130E-1,-5.312020004E-2,-2.286261320E-2,1.727059190E-1
1.260669154E1,2.331267339E-1,-2.633527458E-2,7.208681345E-2,2.454345726E-1
1.261664154E1,2.975165650E-1,-2.534943402E-2,-4.666721284E-2,3.022193393E-1
1.262659154E1,3.257477993E-1,-4.801499605E-2,-2.087742501E-1,3.898765909E-1
1.263654154E1,3.261872175E-1,-3.148667157E-2,-3.126821959E-1,4.529455453E-1
1.264649154E1,3.449462548E-1,-4.360794961E-2,-3.945192415E-1,5.258659562E-1
1.265644154E1,3.173070511E-1,-1.967588067E-3,-4.220736605E-1,5.280471674E-1
1.266639154E1,2.477491584E-1,4.359683990E-2,-3.056415635E-1,3.958498394E-1
1.267634154E1,1.928075507E-1,2.489276648E-2,-1.512674689E-1,2.463254932E-1
1.268629154E1,1.266194084E-1,-2.881741762E-2,1.349367803E-1,1.872721358E-1
1.269624154E1,2.312135249E-2,-8.670894563E-2,1.458336514E-1,1.712322752E-1
1.270619154E1,-8.402828962E-2,-1.054948801E-1,1.540782255E-1,2.047682171E-1
1.271614154E1,-1.988295981E-1,-1.475696898E-1,8.211303413E-2,2.608688805E-1
1.272609154E1,-2.997765139E-1,-1.470159584E-1,1.220840156E-2,3.341088077E-1
1.273604154E1,-3.169252279E-1,-1.449863899E-1,-6.696874559E-2,3.548907807E-1
1.274599154E1,-2.828359607E-1,-1.243311006E-1,-2.771053970E-2,3.101971587E-1
1.275594154E1,-2.174073717E-1,-1.797708911E-1,8.246971428E-2,2.939128992E-1
1.276589054E1,-1.701659623E-1,-2.233127671E-1,1.947023410E-1,3.416636479E-1
1.277584054E1,-1.353569028E-1,-2.443995810E-1,1.063275236E-1,2.989284004E-1
1.278579054E1,-9.277572423E-2,-1.820700163E-1,6.921173751E-2,2.157477472E-1
1.279574054E1,-2.395194948E-2,-2.196079713E-1,-5.608649254E-2,2.279189584E-1
1.280569054E1,4.522265822E-2,-2.496252376E-1,-9.582300067E-2,2.711824027E-1
1.281564054E1,1.119510832E-1,-3.260103393E-1,-1.439841771E-1,3.735602088E-1
1.282559054E1,1.549629092E-1,-1.851561767E-1,1.068818396E-1,2.640455276E-1
1.283554054E1,1.764134198E-1,-1.619374681E-1,3.211004323E-1,4.005632608E-1
1.284549054E1,1.808225128E-1,-1.943515080E-1,5.510269850E-1,6.116371703E-1
1.285544054E1,1.249634770E-1,-2.269620144E-1,7.372257203E-1,7.814277889E-1
1.286539054E1,5.877942771E-2,-2.129251885E-1,7.487283629E-1,7.806319994E-1
1.287534054E1,-1.831201762E-2,-2.193132716E-1,6.088530242E-1,6.474068630E-1
1.288529054E1,-8.658118397E-2,-2.054998094E-1,3.265476984E-1,3.954236619E-1
1.289524054E1,-6.953859687E-2,-1.229149050E-1,9.580487430E-2,1.706524663E-1
1.290519054E1,2.867854625E-2,-4.477388442E-2,-2.596982360E-2,5.917424675E-2
1.291514054E1,1.701683012E-1,1.511271358E-2,-7.933326781E-2,1.883597946E-1
1.292509054E1,2.924414742E-1,-2.930039763E-2,-9.917170107E-2,3.101863237E-1
1.293504054E1,3.455520263E-1,-5.609877169E-2,-1.184768683E-1,3.695809024E-1
1.294499054E1,3.742466524E-1,-4.344715118E-2,-6.061983883E-2,3.816057870E-1
1.295494054E1,4.086443603E-1,-9.267778337E-2,-2.185613197E-1,4.725975404E-1
1.296488954E1,4.494316131E-1,-1.606113195E-2,-2.410847944E-1,5.102632780E-1
1.297483954E1,4.180060449E-1,-3.708011806E-2,-2.728065240E-1,5.005271105E-1
1.298478954E1,2.868652770E-1,-7.330946624E-2,-3.412768346E-1,4.518139471E-1
1.299473954E1,1.843200248E-1,-3.969206929E-2,-1.944380468E-1,2.708421791E-1
1.300468954E1,1.029454941E-1,-3.972539842E-2,-1.439321369E-1,1.813624604E-1
1.301463954E1,9.020587295E-2,-5.160927951E-2,-6.573147476E-2,1.229684676E-1
1.302458954E1,1.038176063E-1,-4.386230350E-2,-4.316648483E-2,1.206869606E-1
1.303454050E1,8.732641160E-2,-8.474369645E-3,-1.005457968E-1,1.334435249E-1
1.304449050E1,1.450548023E-2,6.542449594E-3,-4.389387846E-2,4.668924041E-2
1.305444050E1,-1.219951379E-1,-6.397029340E-2,-6.603786886E-2,1.527612917E-1
1.306439050E1,-2.970382628E-1,-1.193539506E-1,5.280912817E-2,3.244470667E-1
1.307434050E1,-4.350895625E-1,-1.705971944E-1,3.340145928E-1,5.744319615E-1
1.308429050E1,-5.193757144E-1,-2.844073999E-1,5.057139874E-1,7.787074796E-1
1.309424050E1,-6.813742858E-1,-4.123830700E-1,6.637332362E-1,1.036760591E0
1.310419050E1,-8.018108484E-1,-5.015051615E-1,8.269091445E-1,1.256259049E0
1.311414050E1,-8.827953699E-1,-5.881182128E-1,8.793639314E-1,1.377857620E0
1.312409050E1,-9.398332044E-1,-6.253696543E-1,1.041324204E0,1.535815664E0
1.313404050E1,-9.194693989E-1,-6.857649601E-1,1.246167371E0,1.693703242E0
1.314399050E1,-7.226111895E-1,-7.040433562E-1,1.437208770E0,1.755964985E0
1.315394050E1,-4.324755648E-1,-7.067769295E-1,1.443356532E0,1.664285679E0
1.316388950E1,-2.673177427E-1,-6.612288737E-1,1.411680996E0,1.581621204E0
1.317383950E1,-3.231811640E-1,-5.701310080E-1,1.421772121E0,1.565545079E0
1.318378950E1,-3.799193287E-1,-5.622825828E-1,1.523374509E0,1.667684111E0
1.319373950E1,-5.861266512E-1,-6.249217576E-1,1.732330608E0,1.932625414E0
1.320368950E1,-7.642576906E-1,-6.667673564E-1,2.031299329E0,2.270428481E0
1.321363950E1,-7.113573459E-1,-7.670219618E-1,2.266764949E0,2.496512627E0
1.322358950E1,-6.437518385E-1,-7.170636436E-1,2.399154682E0,2.585447715E0
1.323353950E1,-4.841824928E-1,-7.113769341E-1,2.116658737E0,2.284892566E0
1.324348950E1,-2.830242410E-1,-5.938639793E-1,1.672958565E0,1.797656115E0
1.325343950E1,-1.516358435E-1,-4.604924986E-1,1.313855324E0,1.400450850E0
1.326338950E1,-4.563050151E-2,-4.907223111E-1,1.038967191E0,1.149931891E0
1.327333950E1,-1.925195754E-2,-6.538438404E-1,9.485470176E-1,1.152225607E0
1.328328950E1,5.984742165E-2,-9.498752126E-1,1.303329166E0,1.613849915E0
1.329323950E1,6.297550660E-1,-1.083074493E0,2.018940069E0,2.376080976E0
1.330318950E1,1.478017073E0,-1.039879941E0,2.458046669E0,3.050881542E0
1.331313950E1,2.201096039E0,-9.308945659E-1,2.497856267E0,3.456974747E0
1.332308950E1,2.650206056E0,-9.278373492E-1,2.182846295E0,3.556584349E0
1.333303950E1,2.801384062E0,-1.000631091E0,1.843479745E0,3.499633240E0
1.334298950E1,2.673624739E0,-1.106784514E0,1.783234128E0,3.398994728E0
1.335293950E1,2.568713411E0,-1.309552650E0,1.967779856E0,3.490755548E0
1.336288950E1,2.480642649E0,-1.589219128E0,2.176945285E0,3.663099256E0
1.337283950E1,2.730752621E0,-1.961476996E0,2.247596022E0,4.044266282E0
1.338278850E1,3.693152862E0,-1.797785363E0,1.999322661E0,4.568227377E0
1.339273850E1,4.295796143E0,-1.349724191E0,1.239233158E0,4.670258956E0
1.340268850E1,4.509480300E0,-8.738723727E-1,6.704125106E-1,4.642038177E0
1.341263850E1,4.411975055E0,-6.254256414E-1,-3.574806386E-1,4.470399706E0
1.342258850E1,3.941975276E0,-8.809704539E-1,-1.303367758E0,4.244295646E0
1.343253850E1,3.307093956E0,-9.087763032E-1,-1.432554386E0,3.716847707E0
1.344248850E1,2.814278342E0,-1.178078445E0,-1.452589286E0,3.379060083E0
1.345243850E1,2.316349922E0,-1.319515721E0,-7.647064644E-1,2.773332774E0
1.346238850E1,2.279568597E0,-1.252406934E0,-2.049507558E-2,2.601033673E0
1.347233850E1,2.642483638E0,-1.089993138E0,3.337736875E-2,2.858656829E0
1.348228850E1,3.308776785E0,-1.076500030E0,2.742928863E-3,3.479491867E0
1.349223850E1,4.031327164E0,-9.444881728E-1,-4.844505876E-1,4.168734698E0
1.350218850E1,4.624181621E0,-8.209330709E-1,-1.725652503E0,5.003485119E0
1.351213850E1,4.624575139E0,-7.566535328E-1,-2.823297672E0,5.470852724E0
1.352208850E1,3.992524456E0,-6.236584666E-1,-3.481231055E0,5.333682693E0
1.353203850E1,2.998831086E0,-6.993511849E-1,-3.583503827E0,4.724783555E0
1.354198850E1,1.735310349E0,-8.414240534E-1,-3.190754246E0,3.728298419E0
1.355193850E1,6.421377146E-1,-9.219278607E-1,-2.414940995E0,2.663499922E0
1.356188850E1,-3.822792649E-2,-1.258839164E0,-1.854038647E0,2.241338154E0
1.357183850E1,-2.750957090E-1,-1.396488906E0,-1.479633389E0,2.053088863E0
1.358178850E1,-3.466112494E-1,-1.273738162E0,-1.481910149E0,1.984592138E0
1.359173850E1,-3.258325839E-1,-1.076374899E0,-1.980126836E0,2.277202688E0
1.360168850E1,-2.068896925E-1,-9.815623706E-1,-2.603578019E0,2.790140952E0
1.361163850E1,-1.808432704E-1,-9.547126872E-1,-3.099965698E0,3.248687109E0
1.362158850E1,-3.633588445E-1,-7.209749924E-1,-3.266079247E0,3.364388241E0
1.363153750E1,-6.213765907E-1,-7.700633910E-1,-3.097802228E0,3.251997100E0
1.364148750E1,-8.037652802E-1,-9.806038658E-1,-2.935370085E0,3.197502166E0
1.365143750E1,-9.171071237E-1,-1.027089376E0,-2.941083984E0,3.247456399E0
1.366138750E1,-9.882402563E-1,-1.081288753E0,-2.966782497E0,3.308716149E0
1.367133750E1,-1.056747989E0,-1.273489071E0,-2.895051194E0,3.334638233E0
1.368128750E1,-1.261757802E0,-1.176515265E0,-2.926177093E0,3.396871104E0
1.369123750E1,-1.502998717E0,-9.883143698E-1,-2.615785836E0,3.174603279E0
1.370118750E1,-1.692514578E0,-1.094070840E0,-2.267499944E0,3.033669823E0
1.371113750E1,-1.722390341E0,-1.075036399E0,-1.809457136E0,2.719644623E0
1.372108750E1,-1.626681361E0,-1.058983014E0,-1.686607136E0,2.571416128E0
1.373103750E1,-1.408706517E0,-1.078264135E0,-1.846240801E0,2.560412601E0
1.374098750E1,-1.119465809E0,-9.894947764E-1,-2.337886387E0,2.774529937E0
1.375093750E1,-8.606510872E-1,-9.745120172E-1,-2.918642371E0,3.195131805E0
1.376088750E1,-7.661074573E-1,-7.530756216E-1,-3.138667248E0,3.317420025E0
1.377083750E1,-6.907198906E-1,-8.464183795E-1,-3.063152797E0,3.252141310E0
1.378078750E1,-7.148302996E-1,-9.126748612E-1,-2.732217933E0,2.967991340E0
1.379073750E1,-8.370751137E-1,-1.099131093E0,-2.268578171E0,2.656168448E0
1.380068750E1,-1.036906047E0,-1.102543821E0,-1.992046970E0,2.501804980E0
1.381063750E1,-1.213251640E0,-1.205267267E0,-1.979326791E0,2.615794960E0
1.382058750E1,-1.276930742E0,-1.351274873E0,-1.743348516E0,2.548678079E0
1.383053750E1,-1.149393028E0,-1.434443037E0,-1.647046044E0,2.468094777E0
1.384048750E1,-9.608998454E-1,-1.418890905E0,-1.669470116E0,2.392427717E0
1.385043750E1,-7.984671181E-1,-1.408218713E0,-1.861084396E0,2.466630255E0
1.386038750E1,-6.243364513E-1,-1.207113671E0,-2.197251203E0,2.583569675E0
1.387033650E1,-5.122546828E-1,-9.091923326E-1,-2.390489109E0,2.608346935E0
1.388028650E1,-5.056672096E-1,-5.614695275E-1,-2.524300300E0,2.634964774E0
1.389023650E1,-3.831317890E-1,-3.903844560E-1,-2.559804593E0,2.617592319E0
1.390018650E1,-3.047785145E-1,-3.603048438E-1,-2.621771046E0,2.663905580E0
1.391013650E1,-2.022662991E-1,-4.203901740E-1,-2.705340621E0,2.745270011E0
1.392008650E1,-7.680727065E-2,-7.699646462E-1,-2.631082152E0,2.742505826E0
1.393003650E1,-1.392280519E-2,-1.029692484E0,-2.488715315E0,2.693355597E0
1.393998650E1,-6.980347574E-2,-1.207887989E0,-2.360510580E0,2.652522595E0
1.394993650E1,-1.358857834E-1,-1.266612306E0,-2.065465633E0,2.426709699E0
1.395988650E1,2.253551996E-1,-8.900084952E-1,-1.431121234E0,1.700296466E0
1.396983650E1,8.705995399E-1,-3.694967033E-1,-1.171417004E0,1.505552779E0
1.397978650E1,1.680785063E0,-2.561913684E-2,-1.754143646E0,2.429550308E0
1.398973650E1,2.497268622E0,3.384615465E-1,-2.890816641E0,3.835065533E0
1.399968650E1,3.335506747E0,2.043076535E-1,-4.126273667E0,5.309753407E0
1.400963650E1,3.475418338E0,-1.789212541E-1,-5.596113993E0,6.589919367E0
1.401958650E1,3.915531828E0,-1.308238488E0,-6.815891125E0,7.968641620E0
1.402953650E1,3.843852566E0,-1.785936711E0,-5.807914177E0,7.190037523E0
1.403948592E1,3.668233783E0,-2.605594431E0,-3.865030012E0,5.931569642E0
1.404943592E1,3.354633574E0,-2.833674434E0,-6.170133984E-1,4.434408951E0
1.405938592E1,2.691848171E0,-2.604392244E0,1.588026588E0,4.068259331E0
1.406933592E1,3.140678106E0,-4.253966916E0,1.124814257E0,5.406042971E0
1.407928592E1,3.435802867E0,-2.938320590E0,1.504628921E0,4.764701189E0
1.408923592E1,3.731925749E0,-1.050427003E0,8.753860706E-1,3.974539905E0
1.409918592E1,4.068511947E0,-8.270557635E-1,-1.766817486E0,4.512034433E0
1.410913592E1,4.062827284E0,-1.279055181E0,-4.081624913E0,5.899339762E0
1.411908592E1,4.036549604E0,-2.904852005E0,-5.486630727E0,7.405066820E0
1.412903592E1,3.583614047E0,-3.969886960E0,-5.079465712E0,7.375856834E0
1.413898592E1,2.892689796E0,-4.234222038E0,-3.256629562E0,6.074695600E0
1.414893592E1,2.782668002E0,-4.248157707E0,-8.082652974E-1,5.142312506E0
1.415888492E1,3.157269288E0,-4.052870645E0,1.324746348E0,5.305569028E0
1.416883492E1,3.807128836E0,-3.597641810E0,2.249556009E0,5.700680556E0
1.417878492E1,4.365539977E0,-3.078066413E0,3.404913197E0,6.334498087E0
1.418873492E1,4.515069069E0,-2.575445018E0,2.966857342E0,5.985065432E0
1.419868492E1,4.404069327E0,-2.432570935E0,2.237671543E0,5.506396456E0
1.420863492E1,4.409067235E0,-2.172837031E0,2.538027808E0,5.531968890E0
1.421858492E1,4.313940053E0,-1.867596586E0,2.061433539E0,5.132981982E0
1.422853492E1,3.889316714E0,-1.715530388E0,1.383744754E0,4.470411453E0
1.423848492E1,3.299996021E0,-1.660990484E0,1.003860508E0,3.828393795E0
1.424843492E1,2.490431765E0,-1.648122516E0,9.665634584E-1,3.138917508E0
1.425838492E1,1.469120096E0,-1.968127765E0,1.449629425E0,2.851888186E0
1.426833492E1,4.501387607E-1,-1.841113377E0,2.315994412E0,2.992683325E0
1.427828492E1,7.083131575E-2,-1.925293402E0,3.025498483E0,3.586838835E0
1.428823492E1,3.529400564E-1,-1.956165531E0,3.418647137E0,3.954528861E0
1.429818492E1,9.352453329E-1,-1.557556747E0,3.555565538E0,3.992832723E0
1.430813492E1,1.493868143E0,-1.105451202E0,3.445464807E0,3.914702048E0
1.431808492E1,1.554693804E0,-7.510824519E-1,2.381031237E0,2.941174498E0
1.432803492E1,1.217221314E0,-5.560696238E-1,1.036976799E0,1.692974316E0
1.433798492E1,7.629047180E-1,-4.391563010E-1,1.206081784E-1,8.884977198E-1
1.434793492E1,3.484033480E-1,-4.973665023E-1,-2.059705102E-1,6.412348880E-1
1.435788492E1,4.478163198E-2,-7.068365711E-1,4.542234063E-2,7.097087585E-1
1.436783492E1,-4.699797522E-1,-5.462363613E-1,5.677833509E-1,9.174056155E-1
1.437778492E1,-5.793086515E-1,-9.551941323E-1,1.149476643E0,1.602900776E0
1.438773492E1,4.893742721E-1,-2.854271543E0,1.460830936E0,3.243513565E0
1.439768492E1,-5.336959840E-1,1.467256442E0,1.510653307E0,2.172497706E0
1.440763492E1,-5.522037829E-2,1.071260194E0,1.408248096E0,1.770257154E0
1.441758492E1,1.298475100E0,-1.740993842E0,8.388099825E-1,2.328239535E0
1.442753492E1,9.141623197E-1,-6.482445467E-1,4.862474370E-1,1.221617906E0
1.443748492E1,9.710501732E-1,-1.781228533E0,-6.684887767E-2,2.029823219E0
1.444743492E1,-2.752331185E-1,2.191092038E-1,-3.735201359E-3,3.518182265E-1
1.445738392E1,-8.779883008E-1,5.666998619E-1,2.029410678E-1,1.064517387E0
1.446733392E1,-3.401993389E-1,-9.531628096E-1,2.777082449E-1,1.049465007E0
1.447728392E1,2.769293410E-1,-1.182682981E0,4.377506304E-1,1.291144650E0
1.448723392E1,7.280046612E-1,-4.754295033E-1,4.823952913E-1,9.943486393E-1
1.449718392E1,7.809592389E-1,8.810526073E-1,4.569587338E-1,1.262918174E0
1.450713392E1,1.579025969E0,-5.209290272E-1,-1.102843344E-1,1.666389119E0
1.451708392E1,1.694661383E0,-6.134349024E-1,-3.970025539E-1,1.845478423E0
1.452703392E1,1.100365075E0,-4.683151960E-2,-4.236781365E-1,1.180042225E0
1.453698392E1,1.921412605E-1,1.575239897E-2,-2.302265149E-1,3.002842824E-1
1.454693392E1,-3.541830283E-1,-2.230361938E-2,-9.075989664E-2,3.663064670E-1
1.455688392E1,-4.479414502E-1,-8.726677001E-2,3.227499318E-1,5.589584514E-1
1.456683392E1,-3.064622203E-1,-1.039640790E-1,6.815707523E-1,7.544973907E-1
1.457678392E1,-1.687773217E-1,-1.073654044E-1,8.618433344E-1,8.847525346E-1
1.458673392E1,-5.574187227E-3,-7.221954525E-2,8.190440547E-1,8.222407785E-1
1.459668392E1,6.780935593E-2,-2.274566889E-2,3.589576453E-1,3.660137502E-1
1.460663392E1,6.924090050E-3,9.601128101E-3,-8.135874331E-2,8.221538662E-2
1.461658392E1,3.099243566E-3,1.505131781E-2,-2.835233009E-1,2.839394471E-1
1.462653392E1,1.787397529E-1,-2.440452397E-2,-3.432537782E-1,3.877713712E-1
1.463648392E1,2.963133360E-1,-6.314875960E-2,-1.708948177E-1,3.478424897E-1
1.464643392E1,1.355498243E-1,-1.367061478E-1,-4.580708742E-2,1.978904115E-1
1.465638392E1,-9.855511218E-2,-1.606879181E-1,-3.827142978E-1,4.266192106E-1
1.466633392E1,-2.280055963E-2,-1.174565291E-1,-6.913373566E-1,7.016147393E-1
1.467628392E1,1.367594305E-1,-5.245186329E-2,-6.977634466E-1,7.129713649E-1
1.468623392E1,1.607355729E-1,2.431856990E-2,-4.833939958E-1,5.099971298E-1
1.469618392E1,2.378262508E-1,8.681244135E-2,-9.333325624E-2,2.698310995E-1
1.470613392E1,3.581036960E-1,1.444390905E-1,-1.087348223E-2,3.862889340E-1
1.471608392E1,5.638555204E-1,2.804856724E-1,-5.586488307E-2,6.322389939E-1
1.472603392E1,6.530028646E-1,2.426237816E-1,-2.662898022E-1,7.457809995E-1
1.473598392E1,6.660993120E-1,1.262706220E-1,-4.335593462E-1,8.047398773E-1
1.474593392E1,7.502084394E-1,4.378336608E-2,-4.745190918E-1,8.887620909E-1
1.475588392E1,8.003370577E-1,3.136446476E-3,-3.825511605E-1,8.870708166E-1
1.476583392E1,5.705677219E-1,-8.458640635E-2,-1.364418536E-1,5.927214902E-1
1.477578392E1,4.348742388E-2,-1.195451546E-1,-2.051004446E-1,2.413470372E-1
1.478573392E1,-2.261884278E-1,-1.328949326E-1,-5.438121057E-1,6.037829695E-1
1.479568392E1,-8.717803851E-2,-9.918807328E-2,-5.640738773E-1,5.793251448E-1
1.480563392E1,1.819626468E-1,5.022933662E-2,-3.907495415E-1,4.339569049E-1
1.481558292E1,3.800379541E-1,6.933745265E-2,-2.397732639E-1,4.546732310E-1
1.482553292E1,4.214971981E-1,1.201327997E-1,-2.333898586E-1,4.965507061E-1
1.483548292E1,4.734989720E-1,2.213288069E-1,-5.440863401E-1,7.544651501E-1
1.484543292E1,6.006573475E-1,1.486777371E-1,-7.543036830E-1,9.756374147E-1
1.485538292E1,6.437683569E-1,9.775082767E-2,-6.481135690E-1,9.187187382E-1
1.486533292E1,5.972259090E-1,-7.202951074E-2,-3.381456506E-1,6.900793562E-1
1.487528292E1,4.483454197E-1,-4.993171334E-2,1.180582076E-1,4.663094806E-1
1.488523292E1,1.908223479E-1,-8.716152012E-2,1.543542141E-1,2.604525340E-1
1.489518292E1,-2.599672079E-3,-1.396420348E-1,1.994023329E-1,2.434500904E-1
1.490513292E1,-1.453726716E-1,-2.943020582E-2,4.030579305E-1,4.294822999E-1
1.491508292E1,-2.929911125E-1,1.341234326E-1,7.629850441E-1,8.282385313E-1
1.492503292E1,-3.895398988E-1,7.570390105E-2,8.779032969E-1,9.634244195E-1
1.493498292E1,-4.739752277E-1,1.182190061E-2,8.528234196E-1,9.757561472E-1
1.494493292E1,-4.908795281E-1,3.533472419E-2,6.909876931E-1,8.483367526E-1
1.495488292E1,-3.976025514E-1,-5.653146565E-2,1.949713129E-1,4.464273830E-1
1.496483292E1,-2.079664573E-1,-1.764134198E-1,3.278405178E-1,4.264400862E-1
1.497478292E1,-9.112403199E-2,-2.580066365E-1,7.519402385E-2,2.837695454E-1
1.498473292E1,1.339672389E-1,-4.494058853E-1,2.791337961E-1,5.457367012E-1
1.499468292E1,2.606080627E-1,-3.101643848E-1,5.081633860E-1,6.498834779E-1
1.500463292E1,1.927563876E-1,-2.526698828E-1,3.743972182E-2,3.199981678E-1
1.501458292E1,1.972996742E-3,-2.907370108E-1,-4.879559934E-2,2.948099603E-1
1.502453292E1,-1.107719191E-1,-2.564594632E-1,-9.602882266E-2,2.954038069E-1
1.503448292E1,-8.212304749E-2,-1.791914320E-1,-5.708823752E-1,6.039540136E-1
1.504443204E1,1.632521414E-1,-3.512369817E-1,-4.112592351E-1,5.649361358E-1
1.505438204E1,2.095965149E-1,-1.898304409E-1,5.801139593E-2,2.886721625E-1
1.506433204E1,2.321683022E-1,-9.318590641E-2,3.511252999E-1,4.311318939E-1
1.507428204E1,3.030380908E-1,-1.162835777E-1,5.127610517E-1,6.068590042E-1
1.508423204E1,4.682491956E-1,-3.086101949E-1,5.468152356E-1,7.832652574E-1
1.509418204E1,5.464735390E-1,-5.366744095E-1,5.788088608E-1,9.600377325E-1
1.510413204E1,3.152375022E-1,2.103839886E-1,4.805329531E-1,6.120032880E-1
1.511408204E1,2.177996468E-1,1.857239413E-1,2.064727861E-1,3.529321180E-1
1.512403204E1,1.347220413E-1,1.413400662E-1,-3.154707330E-1,3.710105472E-1
1.513398204E1,7.800192989E-2,-5.721617460E-2,-6.951813161E-1,7.018796578E-1
1.514393204E1,9.382018313E-2,-8.231067002E-2,-7.272486162E-1,7.378806292E-1
1.515388204E1,2.070179658E-1,-1.461417997E-1,-6.426084155E-1,6.907672831E-1
1.516383204E1,2.423154871E-1,-2.234443295E-1,-5.376035321E-1,6.306042510E-1
1.517378204E1,2.051188633E-1,-2.104939163E-2,-3.557364142E-1,4.111754143E-1
1.518373204E1,2.766240250E-1,-1.918237567E-2,-6.386159366E-1,6.962177312E-1
1.519368204E1,3.492856197E-1,4.713031232E-2,-8.692488331E-1,9.379846716E-1
1.520363204E1,3.461664956E-1,1.109824920E-1,-8.396104664E-1,9.149284625E-1
1.521358204E1,2.602195153E-1,3.848169565E-2,-6.951655287E-1,7.432699034E-1
1.522353204E1,1.878189987E-1,3.021841049E-3,-3.942344820E-1,4.366989061E-1
1.523348204E1,1.517948147E-1,-3.751748979E-2,-1.674046147E-1,2.290710214E-1
1.524343204E1,8.434791304E-2,-9.757365704E-2,-1.375808913E-1,1.885833784E-1
1.525338204E1,5.309966169E-2,-1.133447671E-1,-7.560274422E-2,1.462271700E-1
1.526333104E1,-2.239542067E-2,-2.653367060E-1,-9.748945713E-2,2.835653658E-1
1.527328104E1,-1.989308280E-1,-4.879910767E-2,-2.003256083E-2,2.058060513E-1
1.528323104E1,-2.110788571E-1,-3.304963231E-2,-3.725261092E-2,2.168739706E-1
1.529318104E1,-1.304692152E-1,-4.575153887E-2,-6.867554784E-3,1.384289808E-1
1.530313104E1,-4.304734781E-2,2.812569201E-2,2.267655480E-1,2.325225633E-1
1.531308104E1,3.187551141E-2,4.520307004E-2,3.919564068E-1,3.958398548E-1
1.532303104E1,1.247372628E-1,-7.321298718E-2,3.607884085E-1,3.887001440E-1
1.533298104E1,4.005233087E-2,-1.111503071E-1,2.634784609E-1,2.887550507E-1
1.534293104E1,-1.451891421E-1,-1.851374656E-1,1.386491776E-2,2.356862408E-1
1.535288104E1,-2.163783348E-1,-2.120837742E-1,-1.654124683E-1,3.451961699E-1
1.536283104E1,-1.745635801E-1,-2.885706174E-1,-2.216691148E-1,4.035872164E-1
1.537278104E1,-1.293573672E-1,-4.296113062E-1,-2.183443880E-1,4.989724187E-1
1.538273104E1,-1.255441055E-1,-3.025577420E-1,-1.244287491E-3,3.275729810E-1
1.539268104E1,1.616053462E-2,-2.787110424E-1,2.220830977E-1,3.567378734E-1
1.540263104E1,2.547374582E-1,-2.438873649E-1,4.005132222E-1,5.336506915E-1
1.541258104E1,4.379783794E-1,-2.391575521E-1,5.254863471E-1,7.246773741E-1
1.542253104E1,5.296067338E-1,-1.536379302E-1,5.361785656E-1,7.691393634E-1
1.543248104E1,5.003300174E-1,-1.160941279E-1,2.944768900E-1,5.920511900E-1
1.544243104E1,4.448633297E-1,-1.209800613E-1,7.937478304E-2,4.678032851E-1
1.545238104E1,3.089869749E-1,-9.711289644E-2,-2.418466866E-2,3.247903378E-1
1.546233104E1,2.592611566E-2,-1.224143833E-1,-1.114479303E-2,1.256250418E-1
1.547228104E1,-2.271226667E-1,-8.992959201E-2,3.513007164E-2,2.467917324E-1
1.548223104E1,-2.149054943E-1,-1.084658504E-2,1.053188789E-1,2.395706287E-1
1.549218104E1,-5.423614115E-2,5.258576453E-2,1.979726887E-1,2.118962178E-1
1.550213104E1,2.091812164E-2,2.124761224E-2,1.324476206E-1,1.357622961E-1
1.551208104E1,-3.926339529E-2,5.154437542E-2,-2.587486482E-1,2.667382608E-1
1.552203104E1,7.208776362E-2,9.187437594E-2,-6.721807086E-1,6.822495524E-1
1.553198104E1,2.225266821E-1,7.062793314E-2,-1.022685034E0,1.048995285E0
1.554193104E1,3.630021644E-1,8.301350534E-2,-9.497901356E-1,1.020177982E0
1.555188104E1,4.618273448E-1,5.400429904E-2,-7.371187162E-1,8.715187678E-1
1.556183104E1,5.038001206E-1,-1.713409603E-2,-5.101257116E-1,7.171724899E-1
1.557178104E1,3.874108545E-1,-3.729821920E-2,-3.021817660E-1,4.927394312E-1
1.558173104E1,2.645955715E-1,-5.244250774E-2,-1.232476115E-2,2.700239486E-1
1.559168104E1,1.087848160E-1,-7.940401912E-2,1.813455462E-1,2.258878960E-1
1.560163104E1,-1.797448710E-2,-1.572754830E-1,1.564457631E-1,2.225622082E-1
1.561158104E1,-3.612563320E-2,-1.159736753E-1,1.183254254E-1,1.695755319E-1
1.562153104E1,1.845381260E-3,5.005216599E-4,2.574178219E-2,2.581269657E-2
1.563148104E1,2.436088912E-2,-9.328647852E-3,-9.906469703E-2,1.024416458E-1
1.564143104E1,-1.034350522E-2,3.577852786E-2,-6.558529437E-2,7.542229109E-2
1.565138104E1,-1.810056768E-2,6.034092665E-2,4.048144341E-2,7.488260973E-2
1.566133104E1,4.912794046E-2,6.745172560E-2,1.059176338E-1,1.348400347E-1
1.567128104E1,3.409321412E-2,9.577446878E-2,1.083009589E-1,1.485402094E-1
1.568123104E1,-7.528633676E-2,8.038518190E-2,1.123969334E-1,1.573622592E-1
1.569118104E1,-1.980839320E-1,-9.408754706E-2,5.284479618E-2,2.255710156E-1
1.570113104E1,-3.291603805E-1,-2.247663850E-1,7.120739222E-3,3.986441883E-1
1.571108104E1,-3.781167783E-1,-2.431821907E-1,1.363295871E-1,4.697825371E-1
1.572103104E1,-2.640513419E-1,-3.372621363E-1,1.181044006E-1,4.443169018E-1
1.573098104E1,-7.238911450E-2,-4.134612966E-1,1.838119018E-1,4.582327388E-1
1.574093104E1,1.601952901E-1,-4.203908318E-1,3.362242556E-1,5.616384357E-1
1.575088104E1,3.489719166E-1,-4.666849923E-1,4.250469697E-1,7.212774827E-1
1.576083104E1,4.326848951E-1,-4.769041711E-1,4.781069434E-1,8.020224786E-1
1.577078104E1,4.948352426E-1,-4.565172690E-1,5.231497997E-1,8.526169405E-1
1.578073104E1,4.888493018E-1,-4.110387951E-1,4.704780811E-1,7.932692832E-1
1.579068104E1,5.315773916E-1,-3.494582587E-1,4.636795235E-1,7.872066427E-1
1.580063104E1,5.052641903E-1,-3.310991710E-1,5.049959493E-1,7.873623510E-1
1.581058104E1,3.661864118E-1,-2.699770564E-1,4.957900929E-1,6.728951742E-1
1.582053104E1,1.862558918E-1,-2.367408979E-1,5.488336945E-1,6.260638419E-1
1.583048104E1,9.989441693E-2,-2.498836845E-1,3.905255932E-1,4.742688997E-1
1.584043104E1,7.907131255E-2,-3.696609735E-1,3.233498561E-1,4.974501355E-1
1.585038104E1,6.813672692E-2,-3.787791216E-1,5.008520275E-1,6.316399212E-1
1.586033104E1,9.666441500E-2,-3.792539155E-1,6.738535970E-1,7.792664575E-1
1.587028104E1,1.276901798E-1,-4.187582892E-1,7.599520934E-1,8.770350455E-1
1.588023104E1,8.198541865E-2,-3.918722069E-1,8.676291543E-1,9.555447582E-1
1.589018104E1,4.801104918E-2,-3.601522315E-1,8.163905883E-1,8.935929069E-1
1.590013104E1,4.967502058E-2,-2.964199197E-1,6.152130407E-1,6.847039228E-1
1.591008104E1,6.684843913E-2,-1.908314842E-1,4.755429393E-1,5.167460269E-1
1.592003104E1,3.724749461E-2,-1.482964987E-1,3.975130159E-1,4.259058877E-1
1.592998104E1,-7.027183771E-3,-2.889746600E-1,3.824599439E-1,4.794072842E-1
1.593993104E1,-1.063773711E-1,-4.115942806E-1,5.540780622E-1,6.983756123E-1
1.594988004E1,-3.556820351E-1,-4.879320198E-1,9.124299359E-1,1.094127851E0
1.595983104E1,-6.376555315E-1,-6.057601395E-1,1.314817775E0,1.581864630E0
1.596978004E1,-7.062129655E-1,-7.537692475E-1,1.718532933E0,2.005058671E0
1.597973004E1,-4.747760770E-1,-7.776267645E-1,1.941755068E0,2.144884252E0
1.598968004E1,-8.426393241E-2,-8.102650452E-1,1.997820511E0,2.157525584E0
1.599963004E1,2.576558036E-1,-8.681913641E-1,2.046668735E0,2.238078566E0
1.600958004E1,5.380625385E-1,-7.234929496E-1,2.170663621E0,2.350475249E0
1.601953004E1,9.321119562E-1,-7.105071607E-1,2.059458350E0,2.369603726E0
