"Time (s)","Linear Acceleration x (m/s^2)","Linear Acceleration y (m/s^2)","Linear Acceleration z (m/s^2)","Absolute acceleration (m/s^2)"
4.921375017E-3,-1.781669450E-2,-2.960787667E-2,-2.900979102E-2,4.511794475E-2
1.487137502E-2,-9.863078794E-3,-3.069522809E-2,4.819859862E-3,3.259920858E-2
2.482137500E-2,-1.047518634E-2,-1.994091942E-2,-3.978679419E-2,4.572044169E-2
3.477137501E-2,-1.501619797E-2,1.877248585E-3,-1.018000245E-3,1.516728678E-2
4.472137502E-2,-1.353543629E-2,-1.752051932E-3,-1.778372169E-2,2.241737002E-2
5.467137502E-2,-5.710610077E-3,-1.152447376E-3,-2.242407203E-2,2.316847446E-2
6.462137500E-2,4.002761724E-3,3.284867539E-3,-4.760218263E-3,7.033643016E-3
7.457137501E-2,-5.662836498E-3,6.939324788E-3,-2.945885718E-2,3.079035908E-2
8.452137501E-2,-5.057773017E-3,1.096352250E-2,-1.883037329E-2,2.236879191E-2
9.447137502E-2,-6.413504784E-3,1.245844312E-2,-4.909322262E-3,1.484746758E-2
1.044213750E-1,1.605978892E-3,1.291427013E-2,-2.526698828E-2,2.842143975E-2
1.143723750E-1,-5.489594461E-3,7.754305594E-3,-3.262161613E-3,1.004522777E-2
1.243223750E-1,-1.096845380E-2,1.601269143E-3,-2.811107397E-2,3.021760284E-2
1.342723750E-1,-6.987998290E-3,-2.572064542E-3,-1.299251318E-2,1.497508046E-2
1.442223750E-1,-7.714039749E-3,1.001163005E-2,-1.748200536E-2,2.157219638E-2
1.541723750E-1,-1.097661706E-2,-7.270875620E-4,-1.867951512E-2,2.167807795E-2
1.641223750E-1,-9.634347595E-3,-4.765149567E-3,6.616124511E-3,1.262142652E-2
1.740723750E-1,-1.496912332E-2,-1.985999716E-2,-2.062663794E-2,3.231025120E-2
1.840223750E-1,-8.710834701E-3,-2.254504544E-2,-2.017815650E-2,3.148516658E-2
1.939723750E-1,-1.289031481E-2,-2.996394469E-2,-1.149621069E-2,3.458556141E-2
2.039223750E-1,-8.930128128E-3,-2.378309285E-2,-2.526757300E-2,3.583061455E-2
2.138723750E-1,-5.008569611E-3,-1.779200372E-2,-1.089687109E-2,2.145653666E-2
2.238223750E-1,2.576438533E-3,-1.602697371E-2,-2.676446021E-2,3.130236815E-2
2.337733750E-1,3.257885836E-3,-2.003329173E-3,-1.448940039E-2,1.498565552E-2
2.437233750E-1,5.922137671E-3,1.747721338E-3,-1.853041112E-2,1.953208593E-2
2.536733750E-1,2.976689581E-3,1.315027380E-3,-2.242231786E-2,2.265723541E-2
2.636233750E-1,-5.738037173E-3,1.920609344E-3,-1.418885350E-2,1.542521878E-2
2.735733750E-1,-7.875811192E-3,6.520949656E-3,-2.346896946E-2,2.559968191E-2
2.835233750E-1,-9.789275969E-3,1.101469934E-2,-1.703235447E-2,2.252231392E-2
2.934733750E-1,-1.875845253E-2,1.144694790E-2,-1.867893040E-2,2.884119621E-2
3.034233750E-1,-2.022720915E-2,-1.243234535E-3,-1.867893040E-2,2.756062523E-2
3.133733750E-1,-2.323646498E-2,3.046972656E-3,-1.523725927E-2,2.795337935E-2
3.233233750E-1,-2.187428301E-2,-2.968540024E-3,-1.254286230E-2,2.538936552E-2
3.332733750E-1,-1.943048034E-2,-7.685632787E-3,-2.197325170E-2,3.032220816E-2
3.432233750E-1,-1.338189663E-2,-2.346449954E-2,-2.152418554E-2,3.453908596E-2
3.531733750E-1,-8.917497229E-3,-2.439723094E-2,-3.411850333E-3,2.619899534E-2
3.631243750E-1,-2.438882785E-4,-1.995171165E-2,-1.852982640E-2,2.723021751E-2
3.730743750E-1,-1.597075593E-3,-2.770936112E-2,-1.703176975E-2,3.256440580E-2
3.830243750E-1,4.700087872E-3,-3.877144803E-2,-6.703248024E-3,3.962637433E-2
3.929743750E-1,2.859471180E-3,-1.486787741E-2,-1.808017552E-2,2.358226242E-2
4.029243750E-1,-1.358040960E-2,-1.592253239E-2,-1.733056247E-2,2.717173086E-2
4.128743750E-1,-2.098810093E-2,-8.630177386E-3,-1.613246799E-2,2.784307572E-2
4.228243750E-1,-2.755153655E-2,1.007651130E-2,-1.074367404E-2,3.124179537E-2
4.327743750E-1,-2.485553159E-2,2.490716296E-2,-1.837779880E-2,3.969770404E-2
4.427243750E-1,-2.191053574E-2,4.428747830E-2,-1.613246799E-2,5.197796489E-2
4.526743750E-1,-1.636202602E-2,3.699014860E-2,-1.224114597E-2,4.225911314E-2
4.626243750E-1,-8.757059681E-3,3.838971164E-2,-2.451620579E-2,4.638426889E-2
4.725753750E-1,2.269240441E-3,3.536900349E-2,-9.098267555E-3,3.659090505E-2
4.825253750E-1,7.956868219E-3,1.201959131E-3,-1.957647800E-2,2.116589116E-2
4.924753750E-1,5.399524500E-3,-1.341877748E-2,-2.436651707E-2,2.833629489E-2
5.024253750E-1,5.569765270E-3,-3.403599364E-2,-1.478526950E-2,3.752433000E-2
5.123753750E-1,1.234967577E-2,-4.161932071E-2,-9.994645715E-3,4.454857226E-2
5.223253750E-1,9.886444816E-3,-6.388744567E-2,-2.509624958E-3,6.469656654E-2
5.322753750E-1,3.663033927E-3,-5.720871027E-2,-2.481324434E-2,6.246560208E-2
5.422253750E-1,7.230411060E-3,-5.991069491E-2,-2.092133760E-2,6.386918331E-2
5.521753750E-1,2.353805797E-3,-2.841054506E-2,-1.493378878E-2,3.218256546E-2
5.621253750E-1,-1.199235151E-2,-2.181550479E-2,-9.095928669E-3,2.650412538E-2
5.720753750E-1,-9.935716745E-3,-4.879873765E-3,-1.493378878E-2,1.858896668E-2
5.820253750E-1,-1.950930811E-2,1.733304069E-2,-1.837721407E-2,3.191816724E-2
5.919753750E-1,-2.387551541E-2,1.849796365E-2,-2.870456636E-2,4.166733763E-2
6.019263750E-1,-2.165140359E-2,3.231041178E-2,-2.481324434E-2,4.613505263E-2
6.118763750E-1,-2.787296895E-2,2.790082545E-2,-1.747908175E-2,4.313788078E-2
6.218263750E-1,-1.730821058E-2,4.032820067E-2,-1.927534640E-2,4.793200290E-2
6.317763750E-1,-8.253098214E-3,2.887444853E-2,-2.032433689E-2,3.626190946E-2
6.417263750E-1,4.607569389E-3,2.160919629E-2,-2.331811130E-2,3.212353303E-2
6.516763750E-1,1.457509407E-2,1.305409167E-3,-2.182180882E-2,2.627410893E-2
6.616263750E-1,1.123055524E-2,-5.366259324E-3,-1.523608983E-2,1.967385431E-2
6.715763750E-1,1.065706673E-2,-1.896688978E-2,-1.089511693E-2,2.433145191E-2
6.815263750E-1,8.767657760E-3,-4.143014958E-2,-1.403799534E-2,4.461383675E-2
6.914763750E-1,4.784612115E-3,-5.327669528E-2,-1.314044774E-2,5.508148636E-2
7.014263750E-1,-2.630671458E-3,-5.229897687E-2,-1.164356053E-2,5.364397372E-2
7.113773750E-1,-3.829099420E-3,-4.931962864E-2,-2.152301610E-2,5.394745585E-2
7.213273750E-1,-1.788345783E-2,-3.035697580E-2,-2.481558323E-2,4.309497899E-2
7.312773750E-1,-1.889029354E-2,-2.055056018E-2,-1.658328831E-2,3.246804837E-2
7.412273750E-1,-1.906259454E-2,-1.594958718E-2,-1.448764622E-2,2.876914554E-2
7.511773750E-1,-1.856832210E-2,1.023801323E-2,-2.047461033E-2,2.947556901E-2
7.611273750E-1,-1.719780327E-2,2.815568411E-2,-1.852924168E-2,3.783965886E-2
7.710773750E-1,-8.523705527E-3,3.583953076E-2,-1.284165502E-2,3.901324935E-2
7.810273750E-1,-4.847200164E-3,3.777666534E-2,-1.868009984E-2,4.242072517E-2
7.909773750E-1,-7.026882274E-3,2.752543193E-2,-2.197266698E-2,3.591412774E-2
8.009273750E-1,1.742940783E-3,2.250046727E-2,-7.452276349E-3,2.376647413E-2
8.108773750E-1,5.857777186E-3,5.609528620E-3,-8.649201393E-3,1.185702533E-2
8.208273750E-1,5.690272730E-3,7.186780781E-3,-3.005410373E-2,3.142098300E-2
8.307773750E-1,3.085388406E-3,-9.727178996E-3,-1.912741184E-2,2.167937999E-2
8.407283750E-1,-4.733768748E-3,-2.276151119E-2,-1.493495822E-2,2.763237115E-2
8.506783750E-1,-1.054010871E-3,-2.164546273E-2,-2.182063937E-2,3.075349246E-2
8.606283750E-1,-8.287057746E-4,-2.931326608E-2,-1.298842013E-2,3.207262663E-2
8.705783750E-1,-4.786475915E-3,-3.188497659E-2,-1.837779880E-2,3.711206774E-2
8.805283750E-1,-1.043198090E-2,-3.028756295E-2,-2.047344089E-2,3.801742333E-2
8.904783750E-1,-2.227345141E-2,-2.791683678E-2,-2.226970553E-2,4.208795787E-2
9.004283750E-1,-2.960975189E-2,-2.392019407E-2,-2.721001804E-2,4.678993666E-2
9.103783750E-1,-1.652246356E-2,-5.757954251E-3,-2.047344089E-2,2.693153581E-2
9.203283750E-1,-1.467686760E-2,7.888053800E-4,-2.571254611E-2,2.961701680E-2
9.302783750E-1,-1.060255514E-2,-3.421450274E-3,-1.643184543E-2,1.985260793E-2
9.402293750E-1,-1.407208278E-2,1.694021286E-2,-1.987410128E-2,2.966435955E-2
9.501793750E-1,-5.882298946E-3,1.874869499E-2,-2.137098849E-2,2.903160612E-2
9.601293750E-1,5.509881559E-3,2.286015783E-2,-1.927476168E-2,3.040496750E-2
9.700793750E-1,-8.874885645E-4,2.313568731E-2,-2.271818697E-2,3.243707266E-2
9.800293750E-1,-1.466458845E-3,8.451976636E-3,-2.166978121E-2,2.330591831E-2
9.899793750E-1,-3.347279713E-3,1.306770472E-3,-1.598219454E-2,1.638116214E-2
9.999293750E-1,1.817935891E-4,-3.058913767E-3,-2.077164888E-2,2.099646160E-2
1.009879375E0,-8.879773552E-3,-1.591219926E-2,-9.394721389E-3,2.050144516E-2
1.019829375E0,-1.191360596E-2,-1.822569810E-2,3.566801548E-5,2.177409815E-2
1.029779375E0,-7.224056781E-3,-1.831946368E-2,-1.987293184E-2,2.797719010E-2
1.039729375E0,-1.377660196E-2,-2.120184636E-2,-2.286612153E-2,3.409065215E-2
1.049679375E0,-1.666006499E-2,-3.608347386E-2,-1.717736542E-2,4.329707535E-2
1.059630375E0,-1.578120564E-2,-3.075917059E-2,-1.762526214E-2,3.880493387E-2
1.069580375E0,-1.530669952E-2,-2.214478069E-2,-1.657744110E-2,3.161483695E-2
1.079530375E0,-1.690118955E-2,-3.092812314E-2,-1.163771331E-2,3.711651089E-2
1.089480375E0,-9.645763370E-3,-1.931606906E-2,-2.436183929E-2,3.255227317E-2
1.099430375E0,-6.702507986E-3,1.095956877E-2,-2.286553681E-2,2.622724794E-2
1.109380375E0,-1.213525655E-3,1.311684189E-2,-1.478293061E-2,1.980048543E-2
1.119330375E0,-4.986857255E-3,1.168600309E-2,-1.582899749E-2,2.029750170E-2
1.129280375E0,8.941854537E-4,1.419361350E-2,-1.328487396E-2,1.946140046E-2
1.139230375E0,-4.933405481E-4,1.945929158E-2,-2.181771576E-2,2.923901734E-2
1.149180375E0,9.326811461E-4,1.822435050E-2,-2.211592376E-2,2.867247686E-2
1.159130375E0,3.253061883E-3,1.667188962E-2,-6.697400808E-3,1.825895650E-2
1.169081375E0,-2.699833056E-3,4.138127051E-3,-2.525880218E-2,2.573752671E-2
1.179031375E0,-5.236533363E-3,1.932758305E-3,-2.690537810E-2,2.747828610E-2
1.188981375E0,-1.394150714E-2,-1.370383382E-2,-1.732529998E-2,2.612138400E-2
1.198931375E0,-2.150401721E-2,-2.522930800E-2,-1.433152556E-2,3.611555570E-2
1.208881375E0,-2.357609228E-2,-2.642474383E-2,-1.013848722E-2,3.683596255E-2
1.218831375E0,-1.636827066E-2,-3.280329551E-2,-1.567813933E-2,3.987205204E-2
1.228781375E0,-9.286369742E-3,-3.172107868E-2,-1.238440275E-2,3.529641521E-2
1.238731375E0,-1.458170417E-2,-2.315198414E-2,-9.540317059E-3,2.897685482E-2
1.248681375E0,-2.270514951E-3,-1.381185656E-2,-1.268261075E-2,1.888838890E-2
1.258631375E0,3.685353845E-3,-1.709352868E-2,-1.447829068E-2,2.270223462E-2
1.268581375E0,1.070986982E-2,-1.197637217E-2,-2.600432217E-2,3.056729582E-2
1.278532375E0,9.770957739E-3,-2.389295655E-3,-1.402922451E-2,1.726266171E-2
1.288482375E0,6.216417071E-3,-1.027290237E-2,-2.136397183E-2,2.450705320E-2
1.298432375E0,1.821722877E-3,1.077374609E-3,-2.061494350E-2,2.072330345E-2
1.308382375E0,-7.286658534E-3,1.085547006E-3,-2.345902920E-2,2.458861232E-2
1.318332375E0,-1.453005681E-2,2.993651074E-3,-1.148334682E-2,1.876037718E-2
1.328282375E0,-2.393726292E-2,7.742499243E-3,-1.866840541E-2,3.132807385E-2
1.338232375E0,-1.721742799E-2,1.717978653E-2,-1.777027309E-2,3.012254135E-2
1.348182375E0,-1.664039003E-2,1.765787407E-2,-2.046408534E-2,3.174085515E-2
1.358132375E0,-1.619795680E-2,2.942389722E-3,-2.016470790E-2,2.603165201E-2
1.368082375E0,-2.978137680E-3,-3.913982261E-3,-1.881692469E-2,1.944904152E-2
1.378032375E0,-8.107625884E-3,-1.158631720E-2,-2.270883143E-2,2.675196009E-2
1.387982375E0,-8.052662057E-3,-2.366011175E-2,-1.582198083E-2,2.958008336E-2
1.397933375E0,-5.731162126E-3,-2.831238036E-2,-1.118163049E-2,3.097524756E-2
1.407883375E0,2.689129910E-3,-2.777444337E-2,-1.043260217E-2,2.979077562E-2
1.417833375E0,9.038516320E-5,-1.937447269E-2,-2.390458703E-2,3.077023956E-2
1.427783375E0,8.942708778E-3,-1.736602035E-2,-2.315555871E-2,3.029406876E-2
1.437733375E0,5.647985484E-3,-1.548478150E-2,-2.165808678E-2,2.721673972E-2
1.447683375E0,6.459894218E-3,-3.490945345E-3,-2.270590782E-2,2.386367915E-2
1.457633375E0,3.677651966E-3,6.036236035E-3,-1.088108361E-2,1.297533236E-2
1.467583375E0,-4.616924934E-3,1.150796680E-2,-1.911396325E-2,2.278361004E-2
1.477533375E0,-1.472854237E-2,1.039102983E-2,-2.420337975E-2,3.017792327E-2
1.487483375E0,-1.838152183E-2,-9.124717070E-4,-1.267676353E-2,2.234755653E-2
1.497434375E0,-7.400441696E-3,-3.485052448E-3,-1.267676353E-2,1.508683073E-2
1.507384375E0,-1.808104803E-2,-1.749742739E-3,-1.387368858E-2,2.285749620E-2
1.517334375E0,-1.427537402E-2,-5.430153860E-3,-2.345318198E-2,2.798793703E-2
1.527284375E0,-1.510856114E-2,-7.622416620E-4,-2.031030357E-2,2.532504814E-2
1.537234375E0,-6.395026669E-3,-6.086209172E-3,-1.881283164E-2,2.078126422E-2
1.547184375E0,-4.547461839E-3,-1.264020245E-2,-1.671718955E-2,2.144571178E-2
1.557134375E0,5.090567674E-3,-2.059185157E-2,-1.222535849E-2,2.448259832E-2
1.567084375E0,1.512692962E-4,-1.727396554E-2,-1.656574667E-2,2.393400782E-2
1.577034375E0,6.855111178E-3,-2.329046493E-2,-1.791236043E-2,3.017102853E-2
1.586984375E0,5.932155596E-3,-1.651180382E-2,-3.752041340E-2,4.141994154E-2
1.596934375E0,-6.901633088E-4,-1.554599226E-2,-1.252181232E-2,1.997373236E-2
1.606885375E0,2.736040112E-4,-1.211745223E-2,-2.479570270E-2,2.759953586E-2
1.616835375E0,-4.006160419E-3,-1.645443030E-5,-1.910753131E-2,1.952299528E-2
1.626785375E0,-6.374954274E-3,5.746513351E-3,-1.835908771E-2,2.026619252E-2
1.636735375E0,-3.991345949E-3,5.426787143E-4,-2.404784381E-2,2.438286560E-2
1.646685375E0,-7.629035851E-3,3.714213052E-3,-2.000566363E-2,2.173071890E-2
1.656635375E0,-7.710476601E-3,-3.360965853E-3,-2.284916461E-2,2.434813882E-2
1.666585375E0,-2.161468034E-2,-1.686770967E-3,-2.015593708E-2,2.960238845E-2
1.676535375E0,-1.456724601E-2,-4.855210392E-3,-1.311998248E-2,2.019682313E-2
1.686485375E0,-1.223625806E-3,-8.881475183E-3,-1.701188922E-2,1.922972273E-2
1.696435375E0,1.513437568E-3,-7.705248368E-3,-1.806029499E-2,1.969354211E-2
1.706386000E0,3.603300964E-3,-1.183841214E-2,-1.386842608E-2,1.858668937E-2
1.716336000E0,1.768065537E-3,-8.917143198E-3,-1.596348345E-2,1.837047366E-2
1.726286000E0,3.119325098E-3,-1.352701036E-2,-6.084027886E-3,1.515670128E-2
1.736236000E0,6.256164433E-3,-9.403898777E-3,-1.491566241E-2,1.870962027E-2
1.746186000E0,6.069711344E-3,-3.396115385E-3,-1.701071978E-2,1.837769253E-2
1.756136000E0,4.921939457E-3,-6.973528715E-3,-1.641196489E-2,1.849886976E-2
1.766086000E0,5.867959564E-3,-1.216764236E-2,-4.736244678E-3,1.431490425E-2
1.776036000E0,-6.495224191E-3,-7.856012885E-3,-2.150138140E-2,2.379525746E-2
1.785986000E0,-1.236092709E-2,-5.165989904E-3,-1.955367386E-2,2.370287181E-2
1.795936000E0,-1.261168585E-2,-9.534958634E-3,-5.632622838E-3,1.678381650E-2
1.805886000E0,-1.400793243E-2,-7.721616004E-3,-2.119966507E-2,2.655694492E-2
1.815837000E0,-1.095909369E-2,-3.017944428E-3,-1.581087112E-2,1.947288804E-2
1.825787000E0,-9.222032097E-3,-5.476744291E-3,-9.673048854E-3,1.444328488E-2
1.835737000E0,-4.735331051E-4,-5.082600843E-4,-2.509157181E-2,2.510118598E-2
1.845687000E0,-4.450452877E-3,2.115004139E-3,-1.700838089E-2,1.770776084E-2
1.855637000E0,7.496500486E-3,3.799095894E-3,-1.506301224E-2,1.724891263E-2
1.865587000E0,2.676914711E-3,1.713697852E-3,-4.583632350E-3,5.577841717E-3
1.875537000E0,-1.994279693E-3,-3.392613907E-3,-1.311530471E-2,1.369299815E-2
1.885487000E0,3.263070672E-3,-2.084303973E-4,-1.985188186E-2,2.011935106E-2
1.895437000E0,6.688474668E-3,-3.785181348E-4,-4.733321071E-3,8.202639680E-3
1.905387000E0,-2.662150492E-3,-6.893387600E-3,-1.850351393E-2,1.992450415E-2
1.915338000E0,-2.236998528E-3,-8.367408996E-3,-1.940164626E-2,2.124715447E-2
1.925288000E0,-7.861124631E-4,-6.536472186E-3,6.566423178E-4,6.616239157E-3
1.935238000E0,-7.299869587E-3,-1.864529749E-2,-1.326382399E-2,2.401799828E-2
1.945188000E0,-1.130793492E-2,-8.681342807E-3,-1.910226882E-2,2.383551508E-2
1.955138000E0,-6.693686913E-3,-6.971182977E-3,-1.999981642E-2,2.221250759E-2
1.965088000E0,-8.761171005E-3,-1.316165303E-2,-1.506008863E-2,2.183560161E-2
1.975038000E0,-9.921888993E-3,-8.043027855E-3,-7.874445319E-3,1.500470151E-2
1.984988000E0,-9.395662425E-3,-1.226277153E-2,-8.023549318E-3,1.740779658E-2
1.994938000E0,-3.378224275E-3,-1.466125371E-3,-2.314269483E-2,2.343386965E-2
2.004888000E0,-3.273572819E-4,4.639662837E-3,-1.700487256E-2,1.762950155E-2
2.014839000E0,-2.322824690E-3,3.847358264E-3,-1.999923170E-2,2.049797426E-2
2.024789000E0,2.462669075E-3,2.156037432E-3,-1.685635328E-2,1.717119339E-2
2.034739000E0,8.498242730E-4,4.493105575E-4,-1.805327833E-2,1.807885338E-2
2.044689000E0,-1.886864514E-3,-7.254359520E-3,-1.446016431E-2,1.628749034E-2
2.054639000E0,-6.740834657E-4,-5.444824432E-3,-5.029774904E-3,7.443059667E-3
2.064589000E0,1.726984279E-4,-7.527221208E-3,-1.041798413E-2,1.285392069E-2
2.074539000E0,-8.122303309E-3,-1.749940996E-2,-1.136114001E-3,1.932593892E-2
2.084489000E0,2.613837873E-3,-1.674488617E-2,-1.670374095E-2,2.379576271E-2
2.094439000E0,-5.456758691E-3,-1.975959179E-2,-2.149378002E-2,2.970185621E-2
2.104390000E0,-8.825627421E-3,-9.910153449E-3,-1.505658031E-2,2.006996391E-2
2.114340000E0,-1.253321896E-2,-1.157788670E-2,-2.388763011E-2,2.935554309E-2
2.124290000E0,-7.095285561E-3,-1.416453046E-2,-2.074299753E-2,2.610074609E-2
2.134240000E0,2.229237263E-3,-5.513520080E-3,-2.508397043E-2,2.577933232E-2
2.144190000E0,-1.186723023E-2,-9.308945476E-3,-2.568272531E-2,2.978405611E-2
2.154140000E0,-5.245591979E-3,7.763731945E-4,-1.026478708E-2,1.155356414E-2
2.164090000E0,6.791618639E-3,2.625445509E-3,-1.939579904E-2,2.071753046E-2
2.174040000E0,1.709374110E-3,-1.246048508E-3,-1.834797800E-2,1.846951253E-2
2.183990000E0,8.725946099E-3,7.834179474E-3,-1.355735421E-2,1.792535513E-2
2.193940000E0,4.724975084E-3,3.390265885E-4,-1.520393014E-2,1.592481775E-2
2.203891000E0,9.686200521E-3,-1.223644536E-2,-1.041330636E-2,1.876139720E-2
2.213841000E0,3.725996562E-3,-1.004232565E-2,-5.173616409E-3,1.189527896E-2
2.223791000E0,1.948315096E-3,-8.214154844E-3,-9.962486029E-3,1.305830768E-2
2.233741000E0,-5.750028533E-3,-1.994589869E-2,-1.520217597E-2,2.572951335E-2
2.243691000E0,-5.225620084E-3,-1.777682837E-2,-1.101089180E-2,2.155371128E-2
2.253641000E0,-7.649003179E-3,-2.139254324E-2,-2.313450873E-2,3.242458404E-2
2.263591000E0,-1.918755137E-2,-8.872953323E-3,-9.363146424E-3,2.312055231E-2
2.273541000E0,-1.177420925E-2,-7.968459867E-3,-1.250719428E-2,1.893563479E-2
2.283491000E0,-7.650145213E-3,-7.278652873E-3,-9.214042425E-3,1.401435290E-2
2.293441000E0,-1.102640976E-2,-1.307040220E-2,-1.714812934E-2,2.421725554E-2
2.303392000E0,9.277343103E-3,-1.490111974E-2,-1.415552437E-2,2.254975244E-2
2.313342000E0,4.232648662E-3,7.059165300E-4,-1.864677072E-2,1.913414986E-2
2.323292000E0,-3.664559685E-5,-5.537192167E-3,-2.583241403E-2,2.641922510E-2
2.333242000E0,-6.278950302E-4,-1.071533788E-2,-1.325914621E-2,1.705924021E-2
2.343192000E0,6.212410815E-3,-7.147067680E-3,-1.909642160E-2,2.131543906E-2
2.353142000E0,1.080825836E-3,-1.121216392E-2,-1.146171212E-2,1.607020999E-2
2.363092000E0,-1.716002477E-3,-2.392689781E-3,-2.313801706E-2,2.332461066E-2
2.373042000E0,1.381450379E-4,-4.942317917E-3,-1.475544870E-2,1.556177550E-2
2.382992000E0,5.462418613E-3,-3.202001529E-3,-1.580326974E-2,1.702451660E-2
2.392943000E0,-4.346399847E-4,-9.906560609E-3,-5.923229456E-3,1.155047628E-2
2.402893000E0,-4.416708048E-3,-7.989991782E-3,-1.834622383E-2,2.049222310E-2
2.412843000E0,-7.967543956E-3,-1.265997791E-2,-5.622682571E-3,1.598034282E-2
2.422793000E0,-1.197704825E-2,-9.253940536E-3,-1.655054390E-2,2.242778642E-2
2.432743000E0,-8.071131036E-3,-9.833742217E-3,-3.092066109E-2,3.343550395E-2
2.442693000E0,9.344398789E-4,-6.118553868E-3,-1.026303291E-2,1.198497909E-2
2.452643000E0,-7.611759156E-3,-1.329836824E-2,-1.834680855E-2,2.390378337E-2
2.462593000E0,-5.797505183E-3,-9.785797333E-3,-1.969459176E-2,2.274312732E-2
2.472543000E0,3.383692335E-3,-7.034634403E-4,-1.206046700E-2,1.254587976E-2
2.482494000E0,4.982691114E-3,-9.361031377E-3,-1.864618599E-2,2.145078953E-2
2.492444000E0,5.753673906E-3,1.488685117E-3,-1.385673165E-2,1.507746527E-2
2.502394000E0,2.412524633E-3,-5.516128486E-3,-1.580268502E-2,1.691073040E-2
2.512344000E0,-5.295932852E-3,-1.092097030E-2,-5.923229456E-3,1.350552273E-2
2.522294000E0,3.596530985E-3,-4.303431949E-3,-1.430521309E-2,1.536534033E-2
2.532244000E0,-6.236576261E-3,-5.198980991E-3,-2.014365792E-2,2.171845393E-2
2.542194000E0,-9.378157323E-3,1.122391317E-3,-1.744926095E-2,1.984152980E-2
2.552144000E0,-9.410824073E-3,-6.269962492E-3,-8.618211150E-3,1.421793244E-2
2.562094000E0,-4.802829847E-3,-1.034559286E-2,-1.191136301E-2,1.649178689E-2
2.572045000E0,-8.971958561E-4,-7.122657839E-3,-1.580443919E-2,1.735849974E-2
2.581995000E0,-8.694028524E-3,-1.481271258E-2,-1.565416574E-2,2.323909403E-2
2.591945000E0,-1.936775981E-3,-1.633697435E-2,-6.373465061E-3,1.764281409E-2
2.601895000E0,-7.391903847E-3,-4.126946535E-3,-1.610264719E-2,1.819250331E-2
2.611845000E0,-2.778578606E-3,-1.572495132E-2,-2.313801706E-2,2.811338518E-2
2.621795000E0,4.944305057E-3,-7.998806003E-3,-1.580385447E-2,1.838991207E-2
2.631745000E0,1.509929239E-3,-4.056916991E-3,-1.176284373E-2,1.253407174E-2
2.641695000E0,1.538160327E-3,-1.312657202E-2,-1.475544870E-2,1.980899029E-2
2.651645000E0,-7.461641030E-4,-1.579490777E-2,-2.059272408E-2,2.596336183E-2
2.661596000E0,-2.005795967E-3,-5.314575420E-3,-2.119264841E-2,2.194074466E-2
2.671546000E0,-1.536661978E-3,4.410454268E-3,-2.224046946E-2,2.272557851E-2
2.681496000E0,3.440871709E-3,3.608337336E-3,-2.403497994E-2,2.454668933E-2
2.691446000E0,-7.270441647E-3,-4.563895713E-3,-1.774746895E-2,1.971449010E-2
2.701396000E0,7.483239183E-3,-9.050256433E-4,-1.610089302E-2,1.777798347E-2
2.711350208E0,-6.368636540E-3,-1.283189291E-2,-1.161023140E-2,1.843948156E-2
2.721300208E0,-9.016726306E-3,-7.057381442E-3,-2.103945136E-2,2.395342355E-2
2.731250208E0,-7.341412227E-3,-6.544678845E-4,-1.340532660E-2,1.529795552E-2
2.741200208E0,3.163339100E-3,-9.881476967E-3,-1.130968451E-2,1.534794009E-2
2.751151208E0,-3.262284952E-3,4.989525047E-4,-1.235692084E-2,1.279003320E-2
2.761101208E0,-2.729452858E-3,-1.143295113E-2,-1.235633612E-2,1.705407068E-2
2.771051208E0,-3.568500895E-3,-2.088119510E-2,-1.220723212E-2,2.444943810E-2
2.781001208E0,-1.290503335E-3,-1.932925042E-2,-1.220723212E-2,2.289763823E-2
2.790951208E0,8.379334118E-4,-1.343299353E-2,-1.100972235E-2,1.738854318E-2
2.800901208E0,-2.081599636E-3,-1.717988703E-2,-1.429644227E-3,1.736448842E-2
2.810851208E0,-2.711235126E-3,-1.987197253E-2,-1.355443060E-2,2.420678990E-2
2.820801208E0,-3.458015928E-3,-9.786249578E-3,-2.433201849E-2,2.645327350E-2
2.830751208E0,-2.471554102E-3,5.178486044E-4,-1.175758123E-2,1.202570012E-2
2.840702208E0,3.976152325E-3,-3.567233237E-3,-1.654703557E-2,1.738790748E-2
2.850652208E0,4.989127619E-3,3.603330657E-3,-1.279370785E-3,6.285871128E-3
2.860602208E0,1.287419843E-3,5.262256544E-3,-7.566881776E-3,9.306260989E-3
2.870552208E0,-6.589423749E-3,5.452501187E-3,-1.834446967E-2,2.024030242E-2
2.880502208E0,-8.268780629E-3,4.214778109E-3,-2.014131904E-2,2.217678561E-2
2.890452208E0,9.641647479E-4,-9.100181605E-3,-2.059038520E-2,2.253235189E-2
2.900402208E0,4.853842235E-3,-2.415674364E-3,-1.744809151E-2,1.827104716E-2
2.910352208E0,-2.792849466E-3,-1.005419595E-2,-1.235984445E-2,1.617567987E-2
2.920303208E0,2.883600080E-3,-1.516964170E-2,-9.216966033E-3,1.798292639E-2
2.930253208E0,3.708829503E-3,-5.578851295E-3,-1.176225901E-2,1.353623784E-2
2.940203208E0,3.501362982E-3,-9.251756966E-4,-1.265980661E-2,1.316761923E-2
2.950153208E0,7.532077138E-3,-3.717984050E-4,-1.340825021E-2,1.538348445E-2
2.960103208E0,1.567853219E-3,-9.636439802E-3,-1.505541086E-2,1.794392744E-2
2.970053208E0,-2.745281453E-3,-1.649826843E-2,-1.355910838E-2,2.153088134E-2
2.980003208E0,-4.744010512E-4,-5.996264834E-3,-1.341058910E-2,1.469775998E-2
2.989953208E0,2.722440767E-3,-1.001787469E-2,-2.284039378E-2,2.508890363E-2
2.999903208E0,-6.890039155E-3,-8.298637974E-3,-1.550564647E-2,1.888822660E-2
3.009854208E0,-7.250259616E-3,-5.890756852E-3,-1.071560740E-2,1.421588980E-2
3.019804208E0,-6.677077166E-3,5.356401284E-3,-2.149261057E-2,2.313453487E-2
3.029754208E0,5.381905194E-4,-3.716003762E-3,-1.819945872E-2,1.858275089E-2
3.039704208E0,-4.755819147E-3,-2.250355761E-3,-1.924727976E-2,1.995343818E-2
3.049654208E0,5.272909440E-4,-1.232024783E-2,-1.879879832E-2,2.248246785E-2
3.059604208E0,-2.195396503E-3,-3.422352481E-3,-1.850000560E-2,1.894155404E-2
3.069554208E0,1.721973033E-3,-1.395137432E-2,-1.206339061E-2,1.852380710E-2
3.079504208E0,-7.147650118E-3,-6.221926245E-3,-1.206397533E-2,1.534082036E-2
3.089455208E0,3.550991225E-3,-7.104451528E-3,-1.296210766E-2,1.520194083E-2
3.099405208E0,7.638491895E-3,-6.340295817E-3,-1.430989087E-2,1.741605254E-2
3.109355208E0,2.786362711E-3,-1.238871736E-2,-1.909992993E-2,2.293581170E-2
3.119305208E0,4.211754003E-3,-2.362220306E-3,-1.760362744E-2,1.825394904E-2
3.129255208E0,2.620996144E-3,-2.897471229E-3,-7.275105715E-3,8.257852231E-3
3.139205208E0,-3.170661824E-3,-5.288246961E-3,-1.266389966E-2,1.408520525E-2
3.149155208E0,1.189154643E-3,-1.206352537E-2,-2.418993115E-2,2.705726340E-2
3.159105208E0,-4.689832404E-3,4.417658220E-3,-1.161549389E-2,1.328269289E-2
3.169056208E0,-2.226473540E-3,-4.112490665E-3,-3.083236814E-3,5.601438488E-3
3.179006208E0,-3.455384681E-3,-1.236107328E-2,-1.086646557E-2,1.681713084E-2
3.188956208E0,4.769121562E-3,-8.396887186E-3,-1.430872142E-2,1.726243736E-2
3.198906208E0,-5.241106069E-3,-1.057258131E-2,-6.825454831E-3,1.363214958E-2
3.208856208E0,-5.621380652E-3,1.729857638E-3,-1.086705029E-2,1.235658164E-2
3.218806208E0,9.230012633E-4,2.356861881E-4,-1.520802319E-2,1.523782953E-2
3.228756208E0,2.912329095E-3,-2.127169089E-3,-6.675181389E-3,7.587130925E-3
3.238706208E0,2.584377956E-4,-5.716859289E-3,-1.266214550E-2,1.389529412E-2
3.248657208E0,3.808364645E-4,-1.087548079E-2,-1.894907176E-2,2.185150886E-2
3.258607208E0,-3.201533295E-3,-7.256483703E-3,-1.161373973E-2,1.406361695E-2
3.268557208E0,2.249633996E-3,-8.927106305E-3,-9.816890359E-3,1.345828430E-2
3.278507208E0,-1.491711508E-3,-1.039794828E-3,-9.667201638E-3,9.836725269E-3
3.288457208E0,1.504886015E-3,-9.808685984E-3,-1.550506175E-2,1.840874636E-2
3.298407208E0,1.256315396E-3,-9.959030233E-3,-1.894790232E-2,2.144256547E-2
3.308357208E0,1.781884152E-3,-1.226802717E-2,-9.518097639E-3,1.562926052E-2
3.318307208E0,1.384844505E-3,-9.849803788E-3,-1.535595775E-2,1.829595221E-2
3.328258208E0,-2.509917319E-4,-9.382780278E-3,-1.266214550E-2,1.576164621E-2
3.338208208E0,-2.947942293E-3,-9.020842197E-3,-7.123662829E-3,1.186644554E-2
3.348158208E0,-4.464499899E-3,-6.445052340E-3,-1.370938182E-2,1.579296074E-2
3.358108208E0,-4.948946284E-3,-2.657059303E-3,-8.170899153E-3,9.915423664E-3
3.368058208E0,-8.201222448E-3,5.289267940E-3,-7.870936990E-3,1.253746601E-2
3.378008208E0,1.556949075E-3,-5.274254757E-3,-6.223191619E-3,8.304815927E-3
3.387958208E0,-1.042188532E-3,-9.015527170E-3,-1.295976877E-2,1.582155156E-2
3.397908208E0,5.848293733E-3,-3.672919376E-4,-4.726304412E-3,7.528306340E-3
3.407859208E0,5.143128661E-4,-1.082511707E-2,-1.131260812E-2,1.566597523E-2
3.417809208E0,8.255551304E-3,-8.311019910E-3,-1.265980661E-2,1.724812693E-2
3.427759208E0,-2.779108509E-3,-7.585460390E-4,-1.161257029E-2,1.196455703E-2
3.437709208E0,1.552645890E-3,5.197558017E-4,-8.320003152E-3,8.479581818E-3
3.447659208E0,4.670842658E-3,5.126633118E-3,-2.029510081E-2,2.144738341E-2
3.457609208E0,-2.200700110E-4,-5.245427527E-3,-2.298832834E-2,2.358020739E-2
3.467559208E0,4.584989087E-3,-1.805862990E-2,-8.917003870E-3,2.065548830E-2
3.477509208E0,-1.350866701E-3,-4.058490715E-3,-1.161198556E-2,1.237474834E-2
3.487460208E0,-5.107730166E-3,-1.036213865E-2,-1.475603342E-2,1.874042014E-2
3.497410208E0,-3.527268888E-3,-4.062316529E-3,-1.520568430E-2,1.612937930E-2
3.507360208E0,-5.914705312E-3,-9.957593554E-3,-1.700136423E-2,2.057143150E-2
3.517310208E0,5.106044523E-3,-1.048325367E-2,-1.251011789E-2,1.710185218E-2
3.527260208E0,5.394070144E-3,-7.779368679E-3,-1.999396920E-2,2.212178506E-2
3.537210208E0,1.068281732E-3,-4.597202002E-3,-2.538217843E-2,2.581725148E-2
3.547160208E0,3.218709491E-4,-1.174802241E-2,-2.223871529E-2,2.515313279E-2
3.557110208E0,-3.438788638E-3,-9.593789389E-3,-1.759894967E-2,2.033688992E-2
3.567061208E0,-3.886160022E-4,-1.500489640E-2,-1.086237252E-2,1.852806183E-2
3.577011208E0,5.150876222E-3,-6.877175281E-3,-1.640085518E-2,1.851526712E-2
3.586961208E0,-2.268948080E-4,-7.446250976E-3,-6.520230174E-3,9.900077594E-3
3.596911208E0,9.817794850E-4,-1.484322774E-2,-9.364315867E-3,1.757770498E-2
3.606861208E0,-9.117088281E-4,-3.416199200E-3,-1.265571356E-2,1.314034686E-2
3.616811208E0,1.671865135E-3,-8.683699965E-3,-4.872484803E-3,1.009667699E-2
3.626761208E0,-1.323439605E-3,-1.137962726E-2,-1.430170476E-2,1.832446911E-2
3.636712208E0,-3.806784069E-3,-4.859266898E-3,-1.579976141E-2,1.696279872E-2
3.646662208E0,-2.737355735E-3,-1.455576400E-2,-1.400349677E-2,2.038286790E-2
3.656612208E0,1.959328875E-3,-1.395501969E-3,-1.415318549E-2,1.435615042E-2
3.666562208E0,-7.421829714E-3,4.696227796E-3,-7.567466497E-3,1.159330242E-2
3.676512208E0,1.988505567E-3,7.619949826E-4,-1.011334419E-2,1.033511110E-2
3.686462208E0,-3.932928611E-3,-6.888632169E-3,-8.018286824E-3,1.127892301E-2
3.696412208E0,2.844761778E-4,6.753406171E-3,-7.269843221E-3,9.926733705E-3
3.706362208E0,-4.259760557E-3,-1.693004190E-3,-1.086295724E-2,1.179049037E-2
3.716309708E0,-5.014718324E-4,-3.396266133E-3,-6.521399617E-3,7.369854179E-3
3.726259708E0,4.954418913E-4,-3.102978019E-3,-4.126380086E-3,5.186612369E-3
3.736209708E0,2.511790255E-3,-1.850465597E-3,-7.569805384E-3,8.187506749E-3
3.746159708E0,2.428120254E-3,-7.417145090E-3,-1.582256556E-3,7.963249654E-3
3.756109708E0,-1.184015488E-3,-5.511612883E-3,-1.101323068E-2,1.237218733E-2
3.766059708E0,6.338829445E-3,-1.471841253E-2,-8.018871546E-3,1.791967430E-2
3.776009708E0,3.521531308E-4,-5.938302025E-3,-1.774863839E-2,1.871901727E-2
3.785960708E0,-8.281932296E-3,-1.218174420E-2,-1.445548654E-2,2.063846858E-2
3.795910708E0,3.765789606E-4,-6.975214358E-3,-1.475427926E-2,1.632434328E-2
3.805860708E0,-2.845086115E-3,-6.553975004E-3,-1.220957100E-2,1.414647403E-2
3.815810708E0,1.740798326E-3,-7.862826262E-3,-1.460517526E-2,1.667829607E-2
3.825760708E0,-2.896792861E-3,-7.601366644E-3,-1.565358102E-2,1.764105390E-2
3.835710708E0,2.685151063E-4,9.320002652E-3,-1.460459054E-2,1.732710635E-2
3.845660708E0,-4.505603998E-3,-5.999101647E-3,-1.834680855E-2,1.982158097E-2
3.855610708E0,-6.016008323E-3,-4.030695884E-3,-1.101206124E-2,1.317969492E-2
3.865561708E0,8.902614238E-4,-3.104136041E-3,-1.984369576E-2,2.010473793E-2
3.875511708E0,5.166572342E-3,-9.102584445E-3,-1.864677072E-2,2.138346491E-2
3.885461708E0,2.194903144E-3,-8.460144466E-4,-1.819711983E-2,1.834852884E-2
3.895411708E0,-7.602705108E-4,-2.740973700E-3,-1.834797800E-2,1.856715500E-2
3.905361708E0,1.766366190E-3,-4.030316728E-3,-6.073502898E-3,7.500062660E-3
3.915311708E0,6.719729863E-5,-8.799059135E-3,-1.355793893E-2,1.616309578E-2
3.925261708E0,-9.229921270E-5,-7.655581296E-3,-1.310828805E-2,1.518037087E-2
3.935212708E0,2.159084380E-3,-1.334090445E-2,-8.917003870E-3,1.619118078E-2
3.945162708E0,-9.114256036E-4,-9.591720023E-3,-3.378521204E-3,1.021010260E-2
3.955112708E0,-1.070013056E-3,-6.245938658E-3,-6.521399617E-3,9.093147454E-3
3.965062708E0,-3.891491038E-3,-7.097217883E-3,-2.702933908E-2,2.821523303E-2
3.975012708E0,3.909754450E-3,2.109490398E-3,-1.984544992E-2,2.033661752E-2
3.984962708E0,4.094298058E-3,-6.840933964E-3,-2.493428171E-2,2.617785435E-2
3.994912708E0,1.629856545E-3,-6.129058299E-3,-1.882803440E-3,6.615643339E-3
4.004862708E0,5.174388424E-3,1.148244690E-3,-1.340883493E-2,1.441837771E-2
4.014813708E0,-9.237321652E-4,4.354850901E-4,-1.011568308E-2,1.016710246E-2
4.024763708E0,5.417221463E-3,-5.733503297E-3,-8.170314431E-3,1.135664503E-2
4.034713708E0,1.175036815E-2,-5.314031811E-3,-1.056533396E-2,1.667142368E-2
4.044663708E0,-3.869851772E-4,-8.926265768E-3,-2.781520486E-3,9.357608365E-3
4.054613708E0,2.471101857E-3,-3.561566463E-3,-1.610440135E-2,1.667761502E-2
4.064563708E0,-7.694538371E-3,-8.136103651E-4,-8.919342756E-3,1.180773296E-2
4.074513708E0,-4.136800007E-3,-3.682172138E-3,-9.667786360E-3,1.114170539E-2
4.084464708E0,-2.814858751E-3,-6.254867082E-3,-9.817475080E-3,1.197621013E-2
4.094414708E0,-1.099381153E-2,-9.754642637E-3,-9.367824197E-3,1.742908704E-2
4.104364708E0,-1.490491815E-3,-8.424209214E-3,-1.954665720E-2,2.133683844E-2
4.114314708E0,8.966065664E-4,-6.719270765E-3,-1.071443796E-2,1.267878873E-2
4.124264708E0,5.114678303E-3,-5.288642105E-3,-1.433152556E-3,7.495571740E-3
4.134214708E0,-3.449121765E-3,-1.135358203E-2,-1.011568308E-2,1.559254020E-2
4.144164708E0,3.427491635E-3,-8.942350179E-3,-1.520509958E-2,1.796965161E-2
4.154115708E0,2.587265018E-3,-4.040478549E-3,-1.550506175E-2,1.623041426E-2
4.164065708E0,-3.672882831E-3,-3.207896710E-3,-1.595471263E-2,1.668333074E-2
4.174015708E0,-1.159164822E-4,-7.952480523E-3,-2.059447825E-2,2.207686385E-2
4.183965708E0,-9.201233368E-4,-1.143472585E-2,-1.146405101E-2,1.621801615E-2
4.193915708E0,5.771841388E-5,-3.810714951E-3,-1.191253245E-2,1.250733022E-2
4.203865708E0,-4.471210493E-3,-7.577331390E-3,-6.972219944E-3,1.122584185E-2
4.213815708E0,-3.980158581E-3,9.355796291E-4,-1.311004221E-2,1.373281393E-2
4.223766708E0,-7.379240971E-3,-4.544113395E-3,-1.760128856E-2,1.961906019E-2
4.233716708E0,4.553674506E-3,-6.191922720E-3,-1.535595775E-2,1.717210811E-2
4.243666708E0,-1.762784771E-3,4.229131197E-3,-1.071502268E-2,1.165352616E-2
4.253616708E0,-3.358005700E-3,-4.239555686E-3,-1.924727976E-2,1.999269399E-2
4.263566708E0,-6.384177343E-3,-4.548642703E-3,-2.104354441E-2,2.245614910E-2
4.273516708E0,-4.325537165E-3,3.492158186E-4,-1.475720286E-2,1.538204342E-2
4.283466708E0,-6.290895981E-3,-8.185638248E-3,-3.980199695E-3,1.106444917E-2
4.293416708E0,-6.580584403E-4,-1.025897184E-2,-1.221366405E-2,1.596412020E-2
4.303367708E0,-3.724251534E-3,9.414245607E-5,-1.176401317E-2,1.233981030E-2
4.313317708E0,-1.186299557E-3,-1.004449094E-2,-1.311121166E-2,1.655907534E-2
4.323267708E0,1.564605273E-3,-7.895330843E-3,-7.272766829E-3,1.084792036E-2
4.333217708E0,5.473683639E-3,5.301563081E-3,-5.626190901E-3,9.472159613E-3
4.343167708E0,-7.641808363E-4,1.145120084E-3,-1.311004221E-2,1.318212726E-2
4.353117708E0,-1.411855901E-3,2.359659865E-3,-1.445724070E-2,1.471642417E-2
4.363067708E0,-7.438343531E-3,-1.424331483E-3,-4.726304412E-3,8.927240786E-3
4.373018708E0,-6.448295717E-3,-2.720972111E-3,-9.066107869E-3,1.145331912E-2
4.382968708E0,2.203600877E-3,-7.373503391E-3,-7.897249460E-2,7.934657720E-2
4.392918708E0,1.883031847E-3,-8.991823106E-3,3.314026415E-2,3.439005379E-2
4.402868708E0,-3.609905120E-2,4.683134601E-2,-8.044014573E-3,5.967430467E-2
4.412818708E0,1.209507521E-1,-1.105231795E-2,-1.491729963E-1,1.923637726E-1
4.422768708E0,-6.548968325E-3,9.715379498E-3,1.018555731E-1,1.025272420E-1
4.432718708E0,1.531771147E-1,2.283353244E-2,-1.129436481E-1,1.916790712E-1
4.442669708E0,1.181740629E0,3.749225906E-1,9.198021054E-2,1.243196775E0
4.452619708E0,1.131584236E0,2.366464105E-1,-7.791531801E-2,1.158686845E0
4.462569708E0,3.564416249E-1,-5.610663802E-2,-4.264374375E-3,3.608556106E-1
4.472519708E0,1.467213136E-1,-8.338637497E-2,4.349334419E-2,1.742759375E-1
4.482469708E0,-6.388785497E-1,-1.929871882E-1,-1.287931108E-1,6.797039955E-1
4.492419708E0,-3.395474913E0,-1.505900251E0,8.317605793E-2,3.715360509E0
4.502369708E0,-3.588882973E0,-2.176478384E0,-5.739626884E-3,4.197281513E0
4.512320708E0,-9.421846622E-1,-4.861092234E-1,-5.587540805E-2,1.061666697E0
4.522270708E0,3.592427336E-1,1.386332585E0,7.285981536E-2,1.433974174E0
4.532220708E0,5.136953636E-1,2.476027442E0,-1.441666102E-1,2.532859813E0
4.542170708E0,6.989027765E-1,1.342540594E0,-3.491021633E-2,1.513967986E0
4.552120708E0,-2.927776891E-1,1.105504832E-1,5.677587926E-2,3.180623917E-1
4.562070708E0,8.654263803E-2,-8.991260585E-1,5.556240660E-1,1.060488284E0
4.572020708E0,-1.695363633E-2,-1.577875968E0,1.294426196E0,2.040960355E0
4.581971708E0,-4.074593855E-1,-7.601479020E-1,1.147915437E0,1.435812604E0
4.591921708E0,2.972707262E-1,1.814140756E0,-6.721315920E-1,1.957354706E0
4.601871708E0,3.092145777E-1,5.384201542E0,-5.716904604E-1,5.423289581E0
4.611821708E0,2.195477158E0,6.938175700E0,-9.989944553E-1,7.345501475E0
4.621771708E0,1.102618299E0,4.290382498E0,1.171258691E0,4.582029683E0
4.631721708E0,7.986063184E-2,-2.038490966E0,3.968291840E0,4.461968541E0
4.641671708E0,1.442079610E-1,-1.359588444E0,2.858009083E0,3.168200214E0
4.651622708E0,-1.644935601E-1,8.212440696E-1,3.103157693E0,3.214200930E0
4.661572708E0,-5.010585804E-1,8.750454703E-1,5.474352744E0,5.566444308E0
4.671522708E0,-2.163111649E-1,-9.585501418E-2,5.648447158E0,5.653400216E0
4.681472708E0,-3.084398948E-2,-4.306339111E-1,4.746386089E0,4.765981308E0
4.691422708E0,-1.074084983E0,-1.276931911E0,4.703608444E0,4.990806153E0
4.701372708E0,-2.078570851E0,-2.064738970E0,5.404100786E0,6.147187089E0
4.711322208E0,-3.630600810E0,-3.323446864E0,-2.774816653E0,5.650324660E0
4.721273208E0,5.202698998E-1,-2.280577973E0,-6.554259800E0,6.959169360E0
4.731223208E0,8.029899395E-1,-2.076359142E0,1.853343413E0,2.896712264E0
4.741173208E0,-7.649360407E-1,-7.049056012E-2,5.915159129E0,5.964830558E0
4.751123208E0,-1.171840635E0,1.806072183E0,4.017521887E0,4.558024717E0
4.761073208E0,-2.865997549E0,2.386498530E0,4.684001561E0,5.987419127E0
4.771023208E0,-5.200381454E0,9.401718313E-1,6.961378037E0,8.740061471E0
4.780973208E0,-5.047311873E0,-2.068756227E-1,7.597439325E0,9.123554075E0
4.790924208E0,-3.560357332E0,-1.735153497E0,6.352290539E0,7.485886526E0
4.800874208E0,-7.709378421E-2,-4.565815884E0,2.305620866E0,5.115516173E0
4.810824208E0,2.386291539E0,-6.601805849E0,9.523839605E-1,7.084155771E0
4.820774208E0,4.190643325E0,-5.119438448E0,1.833606722E0,6.865293519E0
4.830724208E0,4.088286061E0,-3.941365997E0,2.044730383E-1,5.682451765E0
4.840674208E0,2.669025904E0,-1.825182638E0,1.058184650E0,3.402167793E0
4.850624208E0,6.500732633E-1,-8.152799097E-1,2.093206725E0,2.338544627E0
4.860575208E0,2.035024005E-1,-5.364232716E-1,2.696483844E0,2.756843897E0
4.870525208E0,1.089175185E0,-3.692344192E-1,2.100743201E0,2.394944391E0
4.880475208E0,2.985141000E0,-9.303393728E-1,1.816402459E-1,3.132026711E0
4.890425208E0,5.455986055E0,-1.037181451E0,1.490663431E0,5.750270137E0
4.900375208E0,6.654101592E0,-1.422812633E0,3.879408900E0,7.832705611E0
4.910325208E0,5.440422521E0,-3.531825258E0,4.734463617E0,8.030388072E0
4.920275208E0,6.869640486E0,-3.361712798E0,3.838638604E0,8.557348869E0
4.930226208E0,5.419926860E0,-2.935084449E0,-1.516913336E0,6.347547082E0
4.940176208E0,1.495924755E0,-4.575300068E-2,-6.534127836E0,6.703335796E0
4.950126208E0,-9.302639437E-1,2.925864851E0,-7.374596089E0,7.988162718E0
4.960076208E0,-2.363082039E-1,1.378281408E0,-4.709684871E0,4.912904720E0
4.970026208E0,3.129447359E-1,1.311100993E0,-4.196819739E0,4.407971885E0
4.979976208E0,1.035044294E0,1.311571986E0,-3.532776600E0,3.907946810E0
4.989926208E0,1.628016865E0,-2.008033258E-1,-1.405982884E0,2.160451055E0
4.999877208E0,2.302814788E0,-2.621688308E0,-6.089255297E-1,3.542173885E0
5.009827208E0,1.607055182E0,-2.954179116E0,-1.798398882E0,3.813664792E0
5.019777208E0,2.468211468E0,-3.101623676E0,-2.854448714E0,4.884671405E0
5.029727208E0,4.001795216E0,-2.688785107E0,-4.238087633E0,6.419136787E0
5.039677208E0,3.277587737E0,-1.608766370E0,-4.102140453E0,5.491654296E0
5.049627208E0,1.677734571E0,-5.931503266E-1,-1.113510420E0,2.099172707E0
5.059578208E0,5.384636575E-1,5.694196942E-1,4.361286128E-1,8.968779546E-1
5.069528208E0,7.655057788E-1,1.229925560E0,7.155424905E-1,1.615771344E0
5.079478208E0,1.436791863E0,1.899175352E0,-1.435464545E0,2.780610785E0
5.089428208E0,1.755023067E0,1.406527552E0,-6.030672044E0,6.436414454E0
5.099378208E0,1.771666582E0,1.819366997E-1,-5.574504438E0,5.852093913E0
5.109328208E0,2.202475398E0,-1.029962479E0,-3.424552240E0,4.199914121E0
5.119278208E0,2.853660509E0,-1.959521248E0,-3.788509254E0,5.131851926E0
5.129229208E0,2.838624979E0,-1.273387037E0,-3.135382283E0,4.417004457E0
5.139179208E0,1.758309787E0,3.432900310E-1,-3.498599625E-1,1.825350198E0
5.149129208E0,4.437761861E-1,1.379658719E0,3.609828869E0,3.889892023E0
5.159079208E0,-1.517586350E-1,1.415448357E0,4.802732198E0,5.009267541E0
5.169029208E0,4.852867395E-1,8.565165210E-1,2.451185546E0,2.641483362E0
5.178979208E0,7.921638197E-1,8.721271250E-1,-4.630854464E-1,1.265929449E0
5.188930208E0,6.845674503E-1,5.600673652E-1,-2.546731973E0,2.695950999E0
5.198880208E0,7.003952783E-1,-7.211850536E-1,-2.492094421E0,2.687228317E0
5.208830208E0,4.495719463E-1,-1.467968340E0,-1.477049943E0,2.130427778E0
5.218780208E0,3.706672794E-1,-1.248988068E0,-1.347926465E0,1.874638946E0
5.228730208E0,8.517527944E-1,-1.176258937E0,-1.933792330E0,2.418392170E0
5.238680208E0,6.898334527E-1,-1.343947727E0,-1.484724414E0,2.118129427E0
5.248630208E0,2.388640219E-1,-9.068999317E-1,7.589685917E-3,9.378598565E-1
5.258581208E0,-3.257115465E-1,-2.044288918E-1,2.006252196E0,2.042774353E0
5.268531208E0,-9.149360526E-1,-6.684960857E-1,1.903652857E0,2.215375633E0
5.278481208E0,-1.565589652E0,-1.324163965E0,1.594257381E0,2.597332817E0
5.288431208E0,-2.263958870E0,-1.632450809E0,1.199275040E0,3.037871958E0
5.298381208E0,-2.877984341E0,-1.446998471E0,8.505067527E-1,3.331660274E0
5.308331208E0,-2.946190358E0,-8.912022042E-1,2.284306596E0,3.833058259E0
5.318282208E0,-2.723856415E0,-1.416733283E0,2.924369134E0,4.240101625E0
5.328232208E0,-2.138082935E0,-2.593425499E0,1.770046318E0,3.798725895E0
5.338182208E0,-2.432532636E0,-2.819979377E0,-4.976296270E-1,3.757277466E0
5.348132208E0,-3.462871675E0,-2.738462759E0,-6.846212447E-1,4.467590488E0
5.358082208E0,-3.244798306E0,-2.837681238E0,-2.478524203E0,4.972346838E0
5.368032208E0,-1.453890291E0,-2.254560056E0,-4.495728818E0,5.235304731E0
5.377982208E0,7.041600081E-1,-1.296722982E0,-1.609047328E0,2.183200658E0
5.387933208E0,1.188173224E-1,-1.571009729E0,2.812130660E-1,1.600396798E0
5.397883208E0,-1.444330679E0,-1.887378009E0,2.593759959E0,3.517936552E0
5.407833208E0,-2.546543985E0,-1.964188788E0,4.379889629E0,5.433816065E0
5.417783208E0,-2.883596207E0,-1.426569469E0,4.258153523E0,5.336862276E0
5.427733208E0,-3.245323678E0,-9.804172665E-2,3.542187109E0,4.805083503E0
5.437683208E0,-6.456563936E0,4.323379213E0,3.311118010E0,8.446438786E0
5.447634208E0,-7.625104841E0,1.027759248E1,4.422096001E0,1.353979557E1
5.457584208E0,-8.468731760E0,-7.458845696E-1,2.579511464E0,8.884235522E0
5.467534208E0,-9.779228443E0,-3.169696375E0,4.383441228E0,1.117563605E1
5.477484208E0,-1.317924109E0,-3.233589193E-1,6.724069374E0,6.859635114E0
5.487434208E0,-2.084709405E0,-2.664338191E0,4.744565266E0,5.827144315E0
5.497384208E0,3.615509951E-1,-1.461439339E0,4.327448291E0,4.581848183E0
5.507335208E0,5.902647988E-1,-9.206949753E-1,4.752366621E0,4.876584899E0
5.517285208E0,-1.794441925E0,-4.285307407E-1,5.236744119E0,5.552220221E0
5.527235208E0,-1.846078248E0,-8.467148334E-1,6.011619476E0,6.345431398E0
5.537185208E0,-2.077201287E0,-9.393078321E-1,6.535000241E0,6.921220452E0
5.547135208E0,-1.772712064E0,-1.180900165E0,6.693600118E0,7.024337392E0
5.557085208E0,-1.901056401E0,-1.341664097E0,6.269507414E0,6.687361303E0
5.567035208E0,-1.714128079E0,-1.727566881E0,5.410119910E0,5.932294653E0
5.576986208E0,8.770048723E-2,-2.717255493E0,3.951134940E0,4.796106348E0
5.586936208E0,7.424399748E-1,-8.679250234E-1,2.401324584E0,2.659110889E0
5.596886208E0,7.431698535E-1,-5.273825991E-1,1.796127239E0,2.014077182E0
5.606836208E0,1.350119171E-1,-9.749477810E-1,2.273199810E0,2.477133175E0
5.616786208E0,-4.531168208E-1,-1.180145289E0,3.217715172E0,3.457130123E0
5.626736208E0,-6.914551780E-1,-1.415687508E0,4.553772959E0,4.818623200E0
5.636687208E0,-1.090423273E0,-1.593217746E0,5.269608979E0,5.612142594E0
5.646637208E0,-1.617830431E0,-1.847787389E0,4.797138167E0,5.389269722E0
5.656587208E0,-2.646728132E0,-1.928981826E0,3.567012632E0,4.842491075E0
5.666537208E0,-2.997866588E0,-2.433529878E0,2.118476636E0,4.404226948E0
5.676487208E0,-2.690106286E0,-3.061000437E0,8.650294822E-1,4.165893843E0
5.686437208E0,-1.827398733E0,-3.042036163E0,-2.745644894E-1,3.559319570E0
5.696388208E0,-1.310873829E0,-2.455647556E0,-1.063992397E0,2.980046130E0
5.706338208E0,-8.214244562E-1,-2.633167269E0,-6.494636911E-1,2.833745065E0
5.716288708E0,-5.211974144E-1,-2.663801417E0,-8.148299664E-2,2.715533872E0
5.726238708E0,-1.077296859E-1,-2.613623536E0,-6.887332991E-2,2.616749359E0
5.736188708E0,-1.650008243E-1,-2.235737284E0,-4.980006328E-1,2.296464915E0
5.746138708E0,-3.377345914E-1,-2.246478034E0,-1.284649066E0,2.609799118E0
5.756089708E0,-9.252137035E-1,-2.319003389E0,-2.138318578E0,3.287279035E0
5.766039708E0,-7.397289133E-1,-2.810937828E0,-1.957879935E0,3.504549069E0
5.775989708E0,-7.546837521E-1,-3.189075510E0,-2.005373213E0,3.842040070E0
5.785939708E0,-1.046459813E0,-2.411113992E0,-1.889592057E0,3.237144879E0
5.795889708E0,-7.306891179E-1,-2.646822857E0,-1.334433430E0,3.052915066E0
5.805839708E0,-9.329945934E-1,-2.504771184E0,-1.672414189E0,3.152986967E0
5.815789708E0,-9.298376817E-1,-2.082903931E0,-2.101839554E0,3.101744091E0
5.825740708E0,-8.610071826E-1,-2.636370374E0,-2.445575727E0,3.697650978E0
5.835690708E0,-9.654285139E-1,-2.751796165E0,-2.892994729E0,4.107779552E0
5.845640708E0,-1.216693311E0,-2.651757322E0,-3.008834503E0,4.191091096E0
5.855590708E0,-1.234540767E0,-2.949931991E0,-2.938814680E0,4.343134972E0
5.865540708E0,-1.370855736E0,-3.335837114E0,-2.695564077E0,4.502568200E0
5.875490708E0,-1.582964069E0,-3.507915993E0,-2.283519561E0,4.475009658E0
5.885441708E0,-1.791373453E0,-3.378650427E0,-2.138070656E0,4.381283338E0
5.895391708E0,-2.065430696E0,-3.501262447E0,-2.054950147E0,4.554960240E0
5.905341708E0,-2.162258248E0,-4.039811473E0,-2.193421569E0,5.080013352E0
5.915291708E0,-2.371402627E0,-4.355327815E0,-2.274079231E0,5.455627108E0
5.925241708E0,-2.471795812E0,-4.407922350E0,-2.607638326E0,5.686768117E0
5.935191708E0,-2.435542490E0,-4.713706586E0,-2.660514697E0,5.935422095E0
5.945142708E0,-2.482640058E0,-4.628243682E0,-2.622551064E0,5.870427184E0
5.955092708E0,-2.363867905E0,-4.076682846E0,-2.639607393E0,5.401364798E0
5.965042708E0,-2.029143460E0,-3.621042659E0,-2.772360238E0,4.991528264E0
5.974992708E0,-1.852253492E0,-3.195625853E0,-3.189615208E0,4.880216467E0
5.984942708E0,-2.006390775E0,-3.062582109E0,-3.520013298E0,5.078927715E0
5.994892708E0,-2.437994227E0,-3.346958811E0,-3.531225919E0,5.442013012E0
6.004843708E0,-2.954997434E0,-3.899587056E0,-3.263285447E0,5.881141127E0
6.014793708E0,-3.555940930E0,-4.393187659E0,-2.938386079E0,6.370159060E0
6.024743708E0,-4.151142460E0,-4.624953746E0,-2.857240174E0,6.840029407E0
6.034693708E0,-4.579953867E0,-4.706036501E0,-2.858677420E0,7.162038366E0
6.044643708E0,-4.366153350E0,-4.473849999E0,-3.095496671E0,6.975724229E0
6.054593708E0,-3.253862659E0,-3.981007195E0,-3.037481182E0,5.971794740E0
6.064544708E0,-2.123128096E0,-3.391340055E0,-3.683064660E0,5.438182194E0
6.074494708E0,-9.819281870E-1,-2.962392992E0,-4.915661228E0,5.822686710E0
6.084444708E0,-2.511086762E-1,-2.932939398E0,-5.855989400E0,6.554220085E0
6.094394708E0,1.584911191E-1,-3.103651198E0,-6.074201640E0,6.823026877E0
6.104344708E0,1.733617580E-1,-3.351923974E0,-5.582905133E0,6.514159834E0
6.114294708E0,3.900092840E-4,-3.624878433E0,-4.887730249E0,6.085199322E0
6.124245708E0,8.949514389E-2,-4.068867458E0,-4.093480727E0,5.772371803E0
6.134195708E0,5.585605377E-1,-4.576979973E0,-3.660634156E0,5.887357469E0
6.144145708E0,1.717414361E0,-4.881096582E0,-3.881478229E0,6.468422464E0
6.154095708E0,3.528130403E0,-4.668203261E0,-4.668738574E0,7.485782905E0
6.164045708E0,5.486452387E0,-4.149864551E0,-5.827636836E0,9.015757687E0
6.173995708E0,7.472626414E0,-3.499956179E0,-7.028011737E0,1.083894772E1
6.183946708E0,8.983435256E0,-3.040399527E0,-7.951195872E0,1.237609204E1
6.193896708E0,1.001955836E1,-3.345625938E0,-7.840537316E0,1.315518104E1
6.203846708E0,1.047425305E1,-4.007536013E0,-7.128197930E0,1.328839823E1
6.213796708E0,1.022321805E1,-4.362763427E0,-5.656996372E0,1.247194853E1
6.223746708E0,9.977377717E0,-4.752845508E0,-4.046945954E0,1.176925563E1
6.233696708E0,9.876155398E0,-4.214770983E0,-2.835478592E0,1.110597491E1
6.243647708E0,1.012952227E1,-3.262221254E0,-2.466782409E0,1.092402510E1
6.253597708E0,9.940245559E0,-2.932284510E0,-3.280053800E0,1.087039683E1
6.263547708E0,9.226895190E0,-2.952357124E0,-3.821153967E0,1.041408782E1
6.273497708E0,8.790088300E0,-3.079861216E0,-3.677924081E0,1.001390648E1
6.283447708E0,8.436146981E0,-3.796078183E0,-3.723388229E0,9.972081295E0
6.293397708E0,7.913804682E0,-5.343453466E0,-3.861411754E0,1.030006312E1
6.303348708E0,7.371335682E0,-6.332620506E0,-2.645313106E0,1.007156163E1
6.313298708E0,7.644451523E0,-6.789530123E0,-1.615143635E0,1.035104088E1
6.323248708E0,8.082902650E0,-6.752253538E0,-3.713309383E-1,1.053869678E1
6.333198708E0,8.779662130E0,-6.399751219E0,7.065401173E-1,1.088753791E1
6.343148708E0,9.779006249E0,-5.922421371E0,1.824716615E0,1.157728936E1
6.353098708E0,1.133023163E1,-5.640039446E0,1.685207312E0,1.276808981E1
6.363049708E0,1.233180822E1,-5.510783821E0,1.740119684E-1,1.350823869E1
6.372999708E0,1.247146428E1,-5.647322738E0,-1.324382651E0,1.375440529E1
6.382949708E0,1.114886036E1,-7.594588223E0,-1.962264762E0,1.363177687E1
6.392899708E0,8.256245112E0,-9.400262210E0,-2.405573756E-1,1.251352791E1
6.402849708E0,5.778040752E0,-9.446739389E0,3.468850746E0,1.160429082E1
6.412799708E0,3.822956664E0,-8.401985208E0,6.494913484E0,1.128681772E1
6.422750708E0,2.536219264E0,-6.670619976E0,8.349238061E0,1.098359482E1
6.432700708E0,1.911631967E0,-5.408983796E0,8.359877070E0,1.013898353E1
6.442650708E0,1.702859033E0,-4.728624587E0,7.585115733E0,9.099098860E0
6.452600708E0,1.705434293E0,-4.093240991E0,6.343540181E0,7.739743534E0
6.462550708E0,1.806194098E0,-3.520251864E0,5.322289469E0,6.631838018E0
6.472500708E0,2.079477608E0,-3.225890164E0,4.573009713E0,5.970176908E0
6.482451708E0,2.055189883E0,-3.123893673E0,4.230265228E0,5.646030555E0
6.492401708E0,1.749635442E0,-2.884551934E0,4.128842933E0,5.331904726E0
6.502351708E0,1.205162090E0,-2.708385851E0,4.210053742E0,5.149011759E0
6.512301708E0,5.098518426E-1,-2.588715566E0,4.221204382E0,4.977947732E0
6.522251708E0,2.760781143E-2,-2.238579031E0,4.320156813E0,4.865773644E0
6.532202708E0,-2.694895813E-1,-1.885205476E0,4.473757905E0,4.862214940E0
6.542152708E0,-3.756345621E-1,-1.564860504E0,4.062170641E0,4.369338628E0
6.552102708E0,-3.739403314E-1,-1.405297006E0,2.966147490E0,3.303440930E0
6.562052708E0,-3.818117069E-1,-1.238201709E0,1.930196877E0,2.324776040E0
6.572002708E0,-2.306262452E-1,-9.108272141E-1,1.077265869E0,1.429439202E0
6.581952708E0,8.490332544E-2,-8.041289771E-1,2.358632308E-1,8.422965333E-1
6.591903708E0,3.823001687E-1,-6.924418956E-1,2.980314124E-1,8.452525780E-1
6.601853708E0,4.841867320E-1,-6.145417804E-1,7.982817614E-1,1.117744229E0
6.611803708E0,4.223923337E-1,-6.884377223E-1,1.519024181E0,1.720405837E0
6.621753708E0,1.011323456E-1,-7.155477530E-1,2.265750457E0,2.378205515E0
6.631703708E0,-1.619300859E-1,-4.805955184E-1,2.658703814E0,2.706639868E0
6.641653708E0,-4.093145243E-1,-3.305951411E-1,2.575654641E0,2.628845442E0
6.651604708E0,-6.870756134E-1,-2.359737432E-1,1.988457364E0,2.117007132E0
6.661554708E0,-8.129254552E-1,-3.577765077E-1,5.080195445E-1,1.023198750E0
6.671504708E0,-6.633767022E-1,-1.905040401E-1,-8.839165735E-1,1.121458402E0
6.681454708E0,-2.630323184E-1,-2.939980030E-3,-1.445596601E0,1.469334603E0
6.691404708E0,1.136922379E-1,-7.133018374E-3,-1.314449986E0,1.319376963E0
6.701354708E0,2.628110743E-1,1.553681213E-1,-5.683540392E-1,6.451629467E-1
6.711305500E0,2.439759502E-1,7.436605811E-2,3.151082057E-1,4.053982686E-1
6.721255500E0,1.126988690E-1,1.149539208E-1,9.193179560E-1,9.333064573E-1
6.731205500E0,1.446506135E-1,1.889369863E-1,1.281427251E0,1.303332952E0
6.741155500E0,-5.841609634E-2,1.534350318E-1,1.182229822E0,1.193575343E0
6.751105500E0,-4.353439895E-1,1.006902230E-1,7.243916667E-1,8.511205537E-1
6.761056500E0,-6.398415861E-1,3.872201622E-2,2.542135477E-2,6.415160911E-1
6.771006500E0,-5.577471900E-1,-6.574199975E-2,-6.883897752E-1,8.884168059E-1
6.780956500E0,-3.595991579E-1,-1.365161133E-1,-9.903920317E-1,1.062461566E0
6.790906500E0,2.442557395E-2,-1.411816067E-1,-1.083196700E0,1.092631660E0
6.800856500E0,4.826918913E-1,-2.362491471E-1,-7.627078861E-1,9.330211364E-1
6.810806500E0,6.790204892E-1,-1.209432238E-1,-4.537024194E-1,8.255555544E-1
6.820757500E0,6.238391456E-1,6.751019776E-2,7.842928827E-2,6.323638665E-1
6.830707500E0,3.660890557E-1,1.162970263E-1,4.862585467E-1,6.196721466E-1
6.840657500E0,4.943893924E-2,1.787546450E-1,6.947714263E-1,7.190999699E-1
6.850607500E0,-2.102752304E-1,8.211244941E-2,4.454426426E-1,4.993768864E-1
6.860557500E0,-2.344390684E-1,3.238071084E-2,-3.229592621E-2,2.388581463E-1
6.870508500E0,-1.701240085E-2,6.964033842E-3,-6.550583071E-1,6.553161872E-1
6.880458500E0,2.651159737E-1,1.563334966E-1,-1.065909407E0,1.109454598E0
6.890408500E0,6.037613419E-1,2.550549620E-1,-1.137218540E0,1.312572589E0
6.900358500E0,7.210945679E-1,2.645654583E-1,-1.047081957E0,1.298596505E0
6.910308500E0,5.621885888E-1,4.936061579E-1,-6.682747686E-1,1.003142171E0
6.920258500E0,3.236387817E-1,4.044595081E-1,-2.892372000E-1,5.932855236E-1
6.930209500E0,1.314585641E-1,3.676846147E-1,-7.040340006E-2,3.967744557E-1
6.940159500E0,6.707421474E-2,2.939389461E-1,3.796304762E-2,3.038753812E-1
6.950109500E0,5.202560127E-2,1.942421651E-1,1.987644017E-2,2.020686882E-1
6.960059500E0,-2.895548500E-2,9.181122601E-2,-1.667456335E-1,1.925404571E-1
6.970009500E0,-1.978498971E-1,2.574002802E-2,-3.764086604E-1,4.260171481E-1
6.979960500E0,-3.281857228E-1,-3.004533291E-2,-7.374128312E-1,8.077043235E-1
6.989910500E0,-1.998456980E-1,-1.477942228E-2,-8.783038312E-1,9.008742167E-1
6.999860500E0,5.458178468E-2,-8.791054845E-2,-8.043757296E-1,8.110041616E-1
7.009810500E0,2.080944382E-1,-1.057100576E-1,-3.959857231E-1,4.596548754E-1
7.019760500E0,2.963675871E-1,-3.306015730E-1,-2.941734195E-3,4.440042799E-1
7.029711500E0,3.240458941E-1,-5.652789885E-1,4.118193984E-1,7.708056131E-1
7.039661500E0,3.236794198E-1,-6.316250056E-1,8.186686635E-1,1.083483685E0
7.049611500E0,2.580947833E-1,-7.270410401E-1,9.923490947E-1,1.256963928E0
7.059561500E0,1.577941310E-1,-7.907973254E-1,1.123243695E0,1.382727665E0
7.069511500E0,-2.203053249E-1,-8.304911488E-1,1.218645696E0,1.491089305E0
7.079461500E0,-6.562833718E-1,-7.121721554E-1,1.264576744E0,1.592812414E0
7.089412500E0,-6.659014568E-1,-6.276395434E-1,1.250282056E0,1.549374508E0
7.099362500E0,-4.118172057E-1,-5.240578723E-1,1.185926431E0,1.360386550E0
7.109312500E0,-1.119529836E-1,-4.125912309E-1,1.103598220E0,1.183509199E0
7.119262500E0,5.690999977E-2,-4.320110035E-1,9.624060881E-1,1.056455268E0
7.129212500E0,8.891414993E-2,-5.273071700E-1,8.597985631E-1,1.012527603E0
7.139163500E0,3.832813315E-2,-6.645489228E-1,8.851409805E-1,1.107505698E0
7.149113500E0,-1.494521277E-1,-8.241913587E-1,9.363175660E-1,1.256311235E0
7.159063500E0,-3.559302494E-1,-9.049893540E-1,1.153349254E0,1.508610810E0
7.169013500E0,-4.616877425E-1,-9.647935063E-1,1.384066350E0,1.749177448E0
7.178963500E0,-4.368190227E-1,-9.536165535E-1,1.647515575E0,1.953075257E0
7.188914500E0,-2.594757494E-1,-9.958837366E-1,1.766450281E0,2.044372440E0
7.198864500E0,-2.985398278E-2,-1.147002102E0,1.872287223E0,2.195897203E0
7.208814500E0,2.101796284E-2,-1.274128171E0,2.160203537E0,2.508051768E0
7.218764500E0,-5.082472935E-2,-1.508969893E0,2.329143630E0,2.775695110E0
7.228714500E0,-1.126375464E-1,-1.712294539E0,2.508923292E0,3.039627591E0
7.238664500E0,-2.160424854E-1,-1.885512455E0,2.923190920E0,3.485236969E0
7.248615500E0,-3.172778150E-1,-1.816512387E0,3.518180196E0,3.972149840E0
7.258565500E0,1.273649284E-1,-1.447180611E0,3.582268018E0,3.865643245E0
7.268515500E0,7.518566233E-1,-1.024936212E0,3.028187032E0,3.284158846E0
7.278465500E0,9.744852662E-1,-7.637878668E-1,2.579980996E0,2.861694494E0
7.288415500E0,8.037711275E-1,-6.039840478E-1,2.227344775E0,2.443749067E0
7.298366500E0,5.348684970E-1,-8.249608523E-1,1.740309718E0,1.998830316E0
7.308316500E0,5.894548863E-2,-1.119079893E0,1.312832061E0,1.726077170E0
7.318266500E0,-4.265780631E-1,-1.418558491E0,1.197474682E0,1.904789398E0
7.328216500E0,-5.603936398E-1,-1.792934659E0,1.340060205E0,2.307469843E0
7.338166500E0,-3.100869092E-1,-1.676886724E0,1.339567285E0,2.168534871E0
7.348117500E0,3.782189584E-1,-1.250394615E0,9.556279957E-1,1.618567620E0
7.358067500E0,1.112129892E0,-1.058639271E0,1.011879380E0,1.838871905E0
7.368017500E0,1.563908285E0,-9.604314834E-1,1.410426183E0,2.314635992E0
7.377967500E0,1.734265451E0,-1.085649022E0,1.966408684E0,2.837793785E0
7.387917500E0,1.669983501E0,-1.140143902E0,2.597410376E0,3.291703765E0
7.397868500E0,1.492619909E0,-1.430134224E0,2.958936703E0,3.609501975E0
7.407818500E0,1.327689836E0,-1.712234897E0,2.960532408E0,3.668686520E0
7.417768500E0,1.681993098E0,-1.781114805E0,2.638088871E0,3.600136611E0
7.427718500E0,2.676522619E0,-1.165992689E0,1.293952571E0,3.193372126E0
7.437668500E0,3.551947866E0,-6.980781730E-1,-2.856113416E-1,3.631145910E0
7.447619500E0,4.266878738E0,-5.473753989E-1,-1.308061318E0,4.496320540E0
7.457569500E0,4.350672846E0,-4.822758619E-1,-1.769249927E0,4.721354629E0
7.467519500E0,3.954579535E0,-4.650743768E-1,-1.349675367E0,4.204356915E0
7.477469500E0,3.491631498E0,-6.087959408E-1,-4.334424019E-1,3.570713560E0
7.487419500E0,3.185961868E0,-9.542043449E-1,4.444766825E-1,3.355356684E0
7.497370500E0,3.317555795E0,-1.245640390E0,9.506163472E-1,3.668987309E0
7.507320500E0,3.733778731E0,-1.388570168E0,9.749378407E-1,4.101186965E0
7.517270500E0,4.409946656E0,-1.389825858E0,-1.961039186E-2,4.623811198E0
7.527220500E0,5.113248585E0,-1.335115508E0,-1.027341172E0,5.383611650E0
7.537171500E0,5.546358281E0,-1.357949762E0,-9.916485983E-1,5.795643595E0
7.547121500E0,5.659574994E0,-1.521022613E0,-2.657764167E-1,5.866424465E0
7.557071500E0,5.520028853E0,-1.928919261E0,6.308672065E-1,5.881278899E0
7.567021500E0,5.314130849E0,-2.412080245E0,1.337875978E0,5.987322433E0
7.576971500E0,5.281527359E0,-2.921858339E0,1.734355499E0,6.280109584E0
7.586922500E0,5.265912954E0,-3.194457287E0,1.316172575E0,6.298151066E0
7.596872500E0,4.986240630E0,-2.750068898E0,-7.714377791E-1,5.746354567E0
7.606822500E0,4.624020823E0,-1.862692088E0,-4.070507894E0,6.435854636E0
7.616772500E0,4.546344071E0,-2.382940938E0,-5.944617401E0,7.854051692E0
7.626722500E0,3.880448534E0,-1.950554835E0,-5.254641277E0,6.817169496E0
7.636673500E0,2.739643312E0,-1.077543904E0,-3.605003747E0,4.654331140E0
7.646623500E0,2.052210141E0,-1.323303693E0,-2.589032193E0,3.558902475E0
7.656573500E0,1.202243671E0,-1.239065050E0,-1.753375468E0,2.460690467E0
7.666523500E0,6.508605909E-1,-1.449002165E0,-1.489913964E0,2.177859133E0
7.676473500E0,4.233009911E-1,-2.134577383E0,-1.908845769E0,2.894701453E0
7.686424500E0,3.483624905E-1,-2.430307916E0,-2.514861724E0,3.514581410E0
7.696374500E0,4.763902009E-1,-2.536253178E0,-3.419236536E0,4.283772438E0
7.706324500E0,4.834127069E-1,-2.476782610E0,-4.388412530E0,5.062243028E0
7.716278250E0,1.952385306E-1,-2.201142232E0,-4.772162955E0,5.258962301E0
7.726229250E0,-3.495056212E-1,-2.005074859E0,-4.729809233E0,5.149133398E0
7.736179250E0,-8.368312848E-1,-1.784832465E0,-4.547049830E0,4.955963648E0
7.746129250E0,-1.231793745E0,-1.853219160E0,-4.166538763E0,4.723534942E0
7.756079250E0,-1.557653811E0,-1.771454912E0,-3.790658691E0,4.464687135E0
7.766029250E0,-1.783037662E0,-1.994783759E0,-3.809887844E0,4.655494704E0
7.775980250E0,-1.984843785E0,-2.341438571E0,-4.142476301E0,5.155778248E0
7.785930250E0,-2.212281763E0,-2.552879736E0,-4.465469477E0,5.599268095E0
7.795880250E0,-2.498699436E0,-2.535594197E0,-4.631367849E0,5.841430044E0
7.805830250E0,-2.632259197E0,-2.415622049E0,-4.458795465E0,5.713569407E0
7.815780250E0,-2.668559296E0,-2.409898502E0,-4.128023154E0,5.474430990E0
7.825731250E0,-2.703653115E0,-2.293850714E0,-3.819931022E0,5.211848451E0
7.835681250E0,-2.636791958E0,-2.298029865E0,-3.772609506E0,5.144530647E0
7.845631250E0,-2.495765887E0,-2.366288214E0,-3.808420193E0,5.131494095E0
7.855581250E0,-2.406258464E0,-2.476366580E0,-3.964228610E0,5.257145586E0
7.865532250E0,-2.495623215E0,-2.397226417E0,-4.197717286E0,5.440189348E0
7.875482250E0,-2.658201538E0,-2.509866448E0,-4.408475497E0,5.727139007E0
7.885432250E0,-2.922344828E0,-2.558301859E0,-4.546507208E0,5.979609978E0
7.895382250E0,-3.205027884E0,-2.671436126E0,-4.613975891E0,6.220735345E0
7.905332250E0,-3.375884694E0,-2.846545032E0,-4.505839823E0,6.308883309E0
7.915283250E0,-3.399049609E0,-3.015075236E0,-4.346393269E0,6.287714320E0
7.925233250E0,-3.158572340E0,-3.139312781E0,-4.281552325E0,6.177665763E0
7.935183250E0,-2.424405883E0,-2.970878179E0,-4.275645468E0,5.743257369E0
7.945133250E0,-1.527905517E0,-2.490658052E0,-4.620058165E0,5.466517195E0
7.955084250E0,-7.908663225E-1,-2.003358994E0,-5.242310668E0,5.667516029E0
7.965034250E0,-3.239614749E-1,-1.646874136E0,-5.644949938E0,5.889193940E0
7.974984250E0,9.143875837E-2,-1.603416313E0,-5.759917892E0,5.979628671E0
7.984934250E0,6.740518177E-1,-1.903370583E0,-5.354144515E0,5.722239851E0
7.994884250E0,1.562875959E0,-1.997376707E0,-4.668666068E0,5.313053532E0
8.004835250E0,2.534881421E0,-2.058350595E0,-3.995235225E0,5.159877469E0
8.014785250E0,3.288024432E0,-2.016130920E0,-3.521361666E0,5.222631189E0
8.024735250E0,3.710827240E0,-1.815572447E0,-3.353074121E0,5.320681176E0
8.034685250E0,3.718171343E0,-1.771045023E0,-3.205001864E0,5.218566427E0
8.044636250E0,3.135097523E0,-1.947525978E0,-3.060877353E0,4.794858088E0
8.054586250E0,2.766760359E0,-2.328722192E0,-2.389518178E0,4.334478868E0
8.064536250E0,3.073640363E0,-2.535763181E0,-1.848793695E0,4.392652743E0
8.074486250E0,4.113744253E0,-2.470007148E0,-1.440586414E0,5.009901826E0
8.084437250E0,5.291437220E0,-2.337483952E0,-1.806371561E0,6.060207694E0
8.094387250E0,5.833155438E0,-2.499532079E0,-2.336572518E0,6.762612964E0
8.104337250E0,5.440677459E0,-2.900862742E0,-2.570962250E0,6.680256189E0
8.114287250E0,4.471077542E0,-3.112450672E0,-2.039291303E0,5.816922949E0
8.124237250E0,3.459574723E0,-3.256638333E0,-7.376706934E-1,4.808171018E0
8.134188250E0,2.935216303E0,-3.310160821E0,7.853559065E-1,4.493266441E0
8.144138250E0,2.864004233E0,-2.885337507E0,1.844163870E0,4.464149769E0
8.154088250E0,3.175883022E0,-2.451493694E0,1.992721154E0,4.479619616E0
8.164038250E0,3.919620202E0,-1.943902312E0,1.489938961E0,4.621914845E0
8.173989250E0,4.639408355E0,-1.373851557E0,5.389770430E-1,4.868477610E0
8.183939250E0,5.398403844E0,-1.929945301E0,-4.213035822E-1,5.748473679E0
8.193889250E0,5.200210131E0,-2.897601165E0,-6.134243774E-1,5.984527332E0
8.203839250E0,4.784791771E0,-3.365398590E0,1.504354101E-1,5.851732289E0
8.213790250E0,4.611756288E0,-3.754024131E0,1.523771535E0,6.138637709E0
8.223740250E0,4.668966908E0,-3.857592353E0,3.030811847E0,6.772450901E0
8.233690250E0,4.971507400E0,-3.585767284E0,4.105970964E0,7.377845919E0
8.243640250E0,5.343665135E0,-2.979276243E0,4.067093412E0,7.346570141E0
8.253591250E0,5.597531358E0,-2.306392114E0,3.477571868E0,6.981784011E0
8.263541250E0,5.649887327E0,-1.858119419E0,2.657527939E0,6.514314187E0
8.273491250E0,5.482172810E0,-1.777835687E0,2.017027445E0,6.106006728E0
8.283441250E0,4.662520645E0,-2.561996422E0,1.838242979E0,5.628682055E0
8.293391250E0,3.513685149E0,-3.141722419E0,2.610723901E0,5.388161316E0
8.303342250E0,2.550739363E0,-3.033740718E0,3.895306309E0,5.557271388E0
8.313292250E0,1.761338645E0,-3.027456715E0,4.774998270E0,5.921859206E0
8.323242250E0,1.129084771E0,-2.696763341E0,5.220802855E0,5.983656690E0
8.333192250E0,5.975857320E-1,-2.177489076E0,5.055587438E0,5.536924392E0
8.343143250E0,2.426319677E-1,-1.669232719E0,4.227610592E0,4.551691933E0
8.353093250E0,2.470027614E-1,-1.212401454E0,2.943363814E0,3.192854239E0
8.363043250E0,3.629635727E-1,-7.416225341E-1,2.007850240E0,2.170992659E0
8.372993250E0,4.613689962E-1,-4.118498039E-1,1.475358928E0,1.599739222E0
8.382944250E0,6.135103315E-1,-3.886962917E-1,1.378361807E0,1.557999039E0
8.392894250E0,6.664033672E-1,-4.507840741E-1,1.641413421E0,1.827987349E0
8.402844250E0,6.364436960E-1,-5.674430430E-1,1.976369416E0,2.152460976E0
8.412794250E0,3.423746493E-1,-7.346316031E-1,2.216529765E0,2.360065294E0
8.422745250E0,-5.759565890E-2,-7.172794059E-1,2.127522864E0,2.245920867E0
8.432695250E0,-4.058917835E-1,-4.837924835E-1,1.471317333E0,1.601117735E0
8.442645250E0,-4.601121372E-1,-2.049054399E-1,3.845626026E-1,6.337016754E-1
8.452595250E0,-3.431084749E-1,-8.434900939E-3,-2.786736202E-1,4.421013003E-1
8.462546250E0,-1.856841803E-1,1.253692737E-1,-3.703918755E-1,4.328812898E-1
8.472496250E0,8.321260303E-2,1.630452231E-1,-9.893956661E-2,2.080795999E-1
8.482446250E0,3.849760008E-1,2.310702682E-1,2.919584942E-1,5.355742267E-1
8.492396250E0,6.043518376E-1,1.525351453E-1,3.849795091E-1,7.326099485E-1
8.502346250E0,5.939470097E-1,9.981957257E-2,3.145439494E-1,6.794666243E-1
8.512297250E0,3.558074579E-1,3.027629793E-2,1.891445625E-1,4.040931412E-1
8.522247250E0,3.950349659E-2,-8.807865590E-2,-1.416897297E-1,1.714478211E-1
8.532197250E0,-2.121638811E-1,-1.187549034E-1,-2.240501010E-1,3.306277170E-1
8.542147250E0,-2.979340562E-1,-1.120399609E-1,3.776307285E-2,3.205365882E-1
8.552098250E0,-2.957001275E-1,-1.750036561E-1,4.455718660E-1,5.626714253E-1
8.562048250E0,-3.165936908E-1,-1.559350088E-1,8.023081541E-1,8.764962443E-1
8.571998250E0,-3.098650074E-1,-6.683367491E-4,9.571938801E-1,1.006099843E0
8.581948250E0,-3.692899677E-1,1.302081370E-1,6.799311930E-1,7.846245385E-1
8.591899250E0,-4.395506957E-1,2.532975814E-1,2.184940767E-1,5.523623271E-1
8.601849250E0,-5.067366654E-1,3.666125277E-1,-8.961501181E-2,6.318367224E-1
8.611799250E0,-4.878826109E-1,3.270488048E-1,-3.109303701E-1,6.645811145E-1
8.621749250E0,-4.418968910E-1,2.737675139E-1,-3.149567628E-1,6.077987137E-1
8.631700250E0,-2.985740340E-1,2.805567160E-1,-2.120200396E-2,4.102536406E-1
8.641650250E0,-1.805912554E-1,2.580592614E-1,1.603248060E-2,3.153804439E-1
8.651600250E0,-3.326890290E-2,2.211405265E-1,-4.609886348E-2,2.283310263E-1
8.661550250E0,6.993269920E-3,2.514969313E-1,1.052557290E-2,2.518142172E-1
8.671501250E0,-1.104714453E-2,1.560952225E-1,-1.524088454E-1,2.184404131E-1
8.681451250E0,-1.551304320E-1,7.571296424E-2,-3.191065317E-1,3.628041930E-1
8.691401250E0,-1.465891117E-1,7.120914638E-2,-4.058107996E-1,4.373116912E-1
8.701351250E0,-1.770566136E-2,2.775439382E-2,-4.967081058E-1,4.977978899E-1
8.711302250E0,4.510746807E-2,5.752666175E-2,-4.967081058E-1,5.020587046E-1
8.721248833E0,1.828131974E-2,3.880797029E-2,-5.378175402E-1,5.395256914E-1
8.731198833E0,-3.519205213E-2,2.584878623E-2,-5.092848819E-1,5.111533344E-1
8.741148833E0,-7.276976824E-2,2.229250968E-3,-2.592427379E-1,2.692716210E-1
8.751099833E0,-6.059644997E-2,-1.735500383E-1,-2.699659467E-3,1.838445912E-1
8.761049833E0,-1.704463363E-4,-3.818258134E-1,2.183034575E-1,4.398265344E-1
8.770999833E0,9.667201638E-2,-4.015642592E-1,4.486358070E-1,6.098142507E-1
8.780949833E0,1.085520968E-1,-3.887746444E-1,3.024998546E-1,5.044159433E-1
8.790900833E0,1.208821204E-1,-2.386976686E-1,-1.037997723E-2,2.677625963E-1
8.800850833E0,1.903502584E-1,-2.206271410E-2,-1.998508143E-1,2.768760232E-1
8.810800833E0,2.756836465E-1,6.198048592E-2,-2.767744446E-1,3.955340020E-1
8.820750833E0,1.770899427E-1,1.272585091E-1,-1.448869872E-1,2.618163765E-1
8.830701833E0,-5.130931735E-4,5.085031092E-2,-3.537974775E-2,6.194952733E-2
8.840651833E0,-1.513668716E-1,-3.914857060E-2,-8.081436753E-3,1.565562200E-1
8.850601833E0,-1.459535193E-1,-1.041225386E-1,-3.634629250E-3,1.793241294E-1
8.860551833E0,-7.065278381E-2,-1.296511897E-1,4.614505649E-2,1.546952265E-1
8.870502833E0,-1.263671011E-2,-8.273722440E-2,1.319792587E-1,1.562807073E-1
8.880452833E0,-4.742530435E-2,-9.855481982E-4,1.406617892E-1,1.484448373E-1
8.890402833E0,-7.076241910E-2,-2.039713472E-2,1.059211421E-1,1.290064006E-1
8.900352833E0,-5.079505473E-2,-1.008963373E-1,7.766037941E-2,1.370815196E-1
8.910303833E0,1.989544362E-2,-1.211540160E-1,1.249128985E-1,1.751495261E-1
8.920253833E0,5.315674514E-2,-6.082536846E-2,1.744230276E-1,1.922205961E-1
8.930203833E0,3.060608089E-2,-1.166113141E-1,1.222524154E-1,1.716991085E-1
8.940153833E0,-3.911758035E-2,-2.661889377E-1,-3.369925797E-2,2.711500980E-1
8.950104833E0,-1.150097618E-1,-2.913457060E-1,1.179383397E-2,3.134464232E-1
8.960054833E0,-1.952189425E-1,-3.619613600E-1,2.168568563E-1,4.649229589E-1
8.970004833E0,-3.063356280E-1,-4.007316157E-1,5.386876059E-1,7.379781037E-1
8.979954833E0,-4.502794594E-1,-4.315446880E-1,8.930066550E-1,1.089239779E0
8.989905833E0,-4.931632313E-1,-4.703880340E-1,1.219305847E0,1.396847029E0
8.999855833E0,-3.948960945E-1,-5.043349215E-1,1.447817373E0,1.583184065E0
9.009805833E0,-2.482289225E-1,-5.505709022E-1,1.320988927E0,1.452500486E0
9.019756833E0,-9.853026152E-2,-5.332561272E-1,1.190272082E0,1.307982392E0
9.029706833E0,6.954093575E-3,-5.262152025E-1,1.062249050E0,1.185463556E0
9.039656833E0,-5.901214689E-2,-3.510951868E-1,9.508484817E-1,1.015314286E0
9.049606833E0,-2.033632368E-1,-2.535797095E-1,1.032685527E0,1.082635060E0
9.059557833E0,-3.263243347E-1,-1.959279174E-1,1.145035098E0,1.206640251E0
9.069507833E0,-3.863916117E-1,-1.084214115E-1,1.085353153E0,1.157171183E0
9.079457833E0,-3.241143796E-1,1.005750328E-2,7.882736671E-1,8.523653317E-1
9.089407833E0,-1.578660518E-1,1.178421530E-1,2.935097605E-1,3.534917861E-1
9.099358833E0,3.402640969E-2,2.146346220E-1,-1.751165074E-1,2.790906819E-1
9.109308833E0,1.495594972E-1,2.629492879E-1,-6.476376057E-1,7.148040567E-1
9.119258833E0,1.810210258E-1,3.046542612E-1,-9.412432605E-1,1.005744354E0
9.129208833E0,1.194960380E-1,3.809548706E-1,-1.033409997E0,1.107854746E0
9.139159833E0,3.739732951E-2,3.693136489E-1,-9.942652273E-1,1.061298485E0
9.149109833E0,2.662091106E-2,3.957451102E-1,-7.599813294E-1,8.572598709E-1
9.159059833E0,8.737699002E-2,3.860007253E-1,-4.761574817E-1,6.191584980E-1
9.169009833E0,2.069084036E-1,2.923914805E-1,-3.929024863E-1,5.316730472E-1
9.178960833E0,3.043595615E-1,2.661026913E-1,-3.599540108E-1,5.413060825E-1
9.188910833E0,3.474602652E-1,1.744297519E-1,-4.554712021E-1,5.988392023E-1
9.198860833E0,3.881826138E-1,1.092441148E-1,-5.275907600E-1,6.640572478E-1
9.208810833E0,4.532384428E-1,-5.131224096E-3,-5.302044654E-1,6.975444005E-1
9.218761833E0,4.971308595E-1,-1.374279866E-1,-3.278551358E-1,6.111583535E-1
9.228711833E0,5.436536461E-1,-2.939462551E-1,2.077562499E-1,6.520171372E-1
9.238661833E0,4.941239288E-1,-4.882243806E-1,8.486982089E-1,1.096727018E0
9.248611833E0,2.347975758E-1,-4.482998845E-1,1.413957902E0,1.501792141E0
9.258562833E0,-4.938090563E-2,-5.711311743E-1,1.636236296E0,1.733752724E0
9.268512833E0,-1.924988177E-1,-7.269843221E-1,1.818930795E0,1.968266048E0
9.278462833E0,-2.886516014E-1,-8.078460521E-1,2.101719686E0,2.270057406E0
9.288413833E0,-3.758634076E-1,-9.066113716E-1,2.475580714E0,2.663027854E0
9.298363833E0,-4.314429465E-1,-9.367286253E-1,2.817007238E0,2.999855548E0
9.308313833E0,-5.018548250E-1,-8.835122386E-1,3.138646783E0,3.299023457E0
9.318263833E0,-5.855726275E-1,-8.479339778E-1,3.388749154E0,3.541963884E0
9.328214833E0,-6.590002075E-1,-6.983841285E-1,3.493144172E0,3.622716919E0
9.338164833E0,-7.184000248E-1,-4.727801299E-1,3.241523280E0,3.353668562E0
9.348114833E0,-6.871563050E-1,-3.529189333E-1,2.869601773E0,2.971758721E0
9.358064833E0,-7.474074769E-1,-3.831084001E-1,2.428681952E0,2.569802717E0
9.368015833E0,-8.202026805E-1,-4.028222877E-1,1.908310164E0,2.115808572E0
9.377965833E0,-7.974149117E-1,-5.491368726E-1,1.614282340E0,1.882373321E0
9.387915833E0,-6.242572215E-1,-6.928757590E-1,1.605523211E0,1.856738721E0
9.397865833E0,-3.620864904E-1,-8.903710225E-1,1.840948486E0,2.076766359E0
9.407816833E0,-2.131543994E-2,-9.500123298E-1,2.245625510E0,2.438403516E0
9.417766833E0,1.245173344E-1,-8.056162164E-1,2.611563562E0,2.735833747E0
9.427716833E0,8.784915268E-2,-7.111215569E-1,2.662694539E0,2.757417913E0
9.437666833E0,1.665953600E-1,-5.999651103E-1,2.661122807E0,2.732999587E0
9.447617833E0,4.217017776E-1,-6.369731614E-1,2.436249418E0,2.553209436E0
9.457567833E0,5.710917056E-1,-7.474875838E-1,2.180298078E0,2.374570094E0
9.467517833E0,6.684840989E-1,-8.987728867E-1,2.045905674E0,2.332465159E0
9.477468833E0,9.462227494E-1,-1.172106683E0,2.045817965E0,2.540579209E0
9.487418833E0,1.535123904E0,-1.179327922E0,1.807949724E0,2.648792546E0
9.497368833E0,2.023588021E0,-8.903611553E-1,1.365008520E0,2.598249358E0
9.507318833E0,2.642433937E0,-7.468928488E-1,8.256490695E-1,2.867403429E0
9.517269833E0,3.147237512E0,-6.220755523E-1,6.312946379E-2,3.208748554E0
9.527219833E0,3.489278578E0,-5.830044207E-1,-3.717010671E-1,3.557122550E0
9.537169833E0,3.634664333E0,-7.335701142E-1,-1.415108049E-1,3.710651591E0
9.547119833E0,3.806370744E0,-1.123953693E0,3.251607388E-1,3.982142596E0
9.557070833E0,4.298924403E0,-1.329420466E0,7.922772557E-1,4.569005696E0
9.567020833E0,5.135259844E0,-1.332386904E0,8.809070116E-1,5.377931358E0
9.576970833E0,6.139389909E0,-1.205311779E0,6.481007051E-1,6.290065140E0
9.586920833E0,6.936903931E0,-1.150247818E0,3.525479275E-1,7.040454263E0
9.596871833E0,7.190535681E0,-1.463314395E0,-5.725944400E-2,7.338144932E0
9.606821833E0,6.842601791E0,-2.116833276E0,-2.925484782E-1,7.168526139E0
9.616771833E0,6.000488716E0,-2.482296242E0,-6.156743860E-1,6.522784253E0
9.626722833E0,4.889103760E0,-2.259145442E0,-1.836641719E0,5.690371385E0
9.636672833E0,4.192091680E0,-2.287892986E0,-3.624531108E0,5.995440995E0
9.646622833E0,3.691458338E0,-2.495151053E0,-4.345020635E0,6.223491605E0
9.656572833E0,3.059946769E0,-2.020331122E0,-3.555520222E0,5.107517609E0
9.666523833E0,2.499981730E0,-1.373458478E0,-2.581424381E0,3.847083139E0
9.676473833E0,2.091380054E0,-1.051881059E0,-1.949915150E0,3.046718462E0
9.686423833E0,1.703133121E0,-9.919922684E-1,-2.086232458E0,2.870030829E0
9.696373833E0,1.264208370E0,-8.424747980E-1,-2.374037236E0,2.818517232E0
9.706324833E0,1.009049912E0,-8.562962271E-1,-2.962012339E0,3.244216708E0
9.716274583E0,7.929724896E-1,-9.618500179E-1,-3.369114203E0,3.592337866E0
9.726224583E0,5.807173920E-1,-1.300702597E0,-3.666418222E0,3.933405969E0
9.736175583E0,4.249955142E-1,-1.755099812E0,-3.834756052E0,4.238673203E0
9.746125583E0,2.945184052E-1,-1.977503337E0,-3.774746955E0,4.271530770E0
9.756075583E0,2.077433860E-1,-2.020748467E0,-3.752690381E0,4.267231746E0
9.766025583E0,5.859202445E-2,-1.920341834E0,-3.761516168E0,4.223760134E0
9.775976583E0,-1.643061751E-1,-1.679265810E0,-3.904859490E0,4.253805099E0
9.785926583E0,-4.566476619E-1,-1.621451612E0,-4.104322050E0,4.436563073E0
9.795876583E0,-8.909899503E-1,-1.818960908E0,-4.423026878E0,4.864735207E0
9.805827583E0,-1.228267874E0,-1.858745364E0,-4.573834755E0,5.087586920E0
9.815777583E0,-1.604796402E0,-2.064660910E0,-4.750504868E0,5.422683161E0
9.825727583E0,-1.902369978E0,-2.139706561E0,-4.749589194E0,5.545805010E0
9.835677583E0,-2.216518071E0,-2.188194450E0,-4.779318777E0,5.704650321E0
9.845628583E0,-2.539265079E0,-2.279462324E0,-4.771138523E0,5.865797340E0
9.855578583E0,-2.770116076E0,-2.198787851E0,-4.746677281E0,5.919388169E0
9.865528583E0,-2.748604170E0,-2.166588842E0,-4.734727911E0,5.887833259E0
9.875478583E0,-2.598067603E0,-2.207163987E0,-4.574641671E0,5.705162097E0
9.885429583E0,-2.405656201E0,-2.230399945E0,-4.445013578E0,5.524491957E0
9.895379583E0,-2.134522566E0,-2.278885642E0,-4.496789503E0,5.474543103E0
9.905329583E0,-2.028537689E0,-2.173935430E0,-4.652009690E0,5.521064622E0
9.915279583E0,-2.050333770E0,-2.085959393E0,-4.793172001E0,5.615121814E0
9.925230583E0,-2.108961462E0,-2.098434281E0,-4.742659074E0,5.598567672E0
9.935180583E0,-2.290172523E0,-2.172875476E0,-4.458465682E0,5.462984007E0
9.945130583E0,-2.265207835E0,-2.299325900E0,-3.924251196E0,5.081123260E0
9.955081583E0,-1.710407057E0,-2.232630366E0,-3.320535536E0,4.351561432E0
9.965031583E0,-9.733649397E-1,-2.099700058E0,-3.097778839E0,3.866835059E0
9.974981583E0,-4.814094508E-1,-1.923871067E0,-3.521147658E0,4.041227013E0
9.984931583E0,-2.147138518E-1,-1.994798085E0,-4.254372128E0,4.703722318E0
9.994882583E0,-9.433196068E-2,-2.036534633E0,-4.689081037E0,5.113105984E0
1.000483258E1,-2.096682894E-1,-2.152016558E0,-4.778823226E0,5.245215675E0
1.001478258E1,-7.480693817E-2,-2.428107463E0,-4.109465553E0,4.773783516E0
1.002473358E1,7.687866515E-1,-2.468129023E0,-3.085694106E0,4.025444311E0
1.003468358E1,2.216861302E0,-2.349524100E0,-2.445069651E0,4.051308817E0
1.004463358E1,3.680048082E0,-2.123248111E0,-2.603982354E0,4.983137618E0
1.005458358E1,4.765790074E0,-1.903846692E0,-3.298117896E0,6.100407275E0
1.006453458E1,5.248788214E0,-1.890979163E0,-4.277387938E0,7.030051741E0
1.007448458E1,4.901686383E0,-1.915690227E0,-4.700519360E0,7.056293694E0
1.008443458E1,4.086516693E0,-2.047080964E0,-4.273603621E0,6.257303498E0
1.009438458E1,3.542439124E0,-2.295698288E0,-3.367948269E0,5.400201951E0
1.010433558E1,3.528290032E0,-2.561347966E0,-2.037103275E0,4.812392721E0
1.011428558E1,4.008259898E0,-2.593791534E0,-1.251767834E0,4.935668611E0
1.012423558E1,4.572762961E0,-2.622926456E0,-1.318412059E0,5.433977792E0
1.013418658E1,4.793362035E0,-2.623805585E0,-1.762388220E0,5.741662441E0
1.014413658E1,4.831860103E0,-2.474863553E0,-2.256387895E0,5.879039717E0
1.015408658E1,4.968345226E0,-2.582743513E0,-2.239849046E0,6.030915526E0
1.016403658E1,5.250635934E0,-2.819405181E0,-1.605966430E0,6.172305198E0
1.017398758E1,5.505879761E0,-3.233190998E0,-5.645814157E-1,6.409913271E0
1.018393758E1,5.627905304E0,-3.254029013E0,6.939604175E-1,6.537859282E0
1.019388758E1,5.759089926E0,-3.155861278E0,1.508630755E0,6.738140986E0
1.020383858E1,6.134297569E0,-3.089702372E0,1.772793340E0,7.093564946E0
1.021378858E1,6.306835454E0,-2.997570719E0,1.937304168E0,7.246706224E0
1.022373858E1,6.110820413E0,-2.850764383E0,2.147133840E0,7.076663580E0
1.023368858E1,5.705057561E0,-2.901426998E0,2.457686480E0,6.856105544E0
1.024363958E1,5.001505371E0,-3.187636218E0,2.911342707E0,6.606965793E0
1.025358958E1,4.164794539E0,-3.250202887E0,3.619069809E0,6.403670716E0
1.026353958E1,3.579186535E0,-3.029062068E0,4.096162845E0,6.226101776E0
1.027349058E1,3.066127861E0,-2.844045932E0,4.472396089E0,6.123076359E0
1.028344058E1,2.359557630E0,-2.476073927E0,4.871648651E0,5.952429326E0
1.029339058E1,1.839611666E0,-2.180801816E0,4.825805896E0,5.606110076E0
1.030334058E1,1.337757280E0,-1.963642658E0,4.269546822E0,4.886155656E0
1.031329158E1,9.540235198E-1,-1.610874291E0,3.557241350E0,4.019831201E0
1.032324158E1,8.349601758E-1,-1.371431687E0,3.054072656E0,3.450412027E0
1.033319158E1,8.547351667E-1,-1.194244388E0,2.731957732E0,3.101674534E0
1.034314258E1,8.311895987E-1,-1.031171683E0,2.697598908E0,3.005200668E0
1.035309258E1,8.272093990E-1,-1.075049774E0,2.803452222E0,3.114378232E0
1.036304258E1,8.411038452E-1,-1.097056355E0,3.055499961E0,3.353664911E0
1.037299258E1,7.071894506E-1,-9.240103465E-1,3.303899623E0,3.502808124E0
1.038294358E1,4.627074239E-1,-6.500177148E-1,3.051656002E0,3.154239297E0
1.039289358E1,2.473886776E-1,-4.817284164E-1,2.371736503E0,2.432775671E0
1.040284358E1,1.498255455E-1,-4.493018049E-1,1.607728781E0,1.676040465E0
1.041279358E1,3.791773170E-2,-3.884159178E-1,1.024184260E0,1.096019196E0
1.042274458E1,-2.681006849E-2,-3.726667348E-1,6.793558270E-1,7.753216201E-1
1.043269458E1,-3.307916075E-2,-3.357810366E-1,4.594268435E-1,5.700141752E-1
1.044264458E1,2.108564436E-2,-3.050314066E-1,5.285134506E-1,6.105859734E-1
1.045259558E1,1.848313639E-1,-3.581068754E-1,6.226273102E-1,7.416656488E-1
1.046254558E1,4.165343007E-1,-1.669725055E-1,1.010088378E0,1.105286918E0
1.047249558E1,6.065895671E-1,-9.385073483E-3,1.273500765E0,1.410618014E0
1.048244558E1,4.982351062E-1,1.051560339E-1,1.192730252E0,1.296881438E0
1.049239658E1,1.990286958E-1,-3.300490111E-2,7.981730032E-1,8.232750988E-1
1.050234658E1,-5.461357892E-2,-1.180175695E-1,5.025547367E-1,5.191069766E-1
1.051229658E1,-2.563030502E-1,-1.568921980E-1,2.802845281E-1,4.109328802E-1
1.052224758E1,-3.542067826E-1,-2.327229837E-1,2.977793974E-1,5.179720084E-1
1.053219758E1,-3.263714048E-1,-1.983021793E-1,6.269864094E-1,7.341348689E-1
1.054214758E1,-1.435967991E-1,-1.278593105E-1,8.528199112E-1,8.742252827E-1
1.055209758E1,4.260310560E-2,2.041058332E-2,8.776881194E-1,8.789585038E-1
1.056204858E1,9.262369663E-2,9.841419429E-2,7.203266823E-1,7.328949666E-1
1.057199858E1,-9.676557183E-3,1.102875504E-1,6.258011788E-1,6.355187605E-1
1.058194858E1,-3.590070543E-1,2.375957608E-2,4.209539187E-1,5.537623896E-1
1.059189958E1,-5.649723020E-1,-5.739071399E-2,2.332606351E-1,6.139201251E-1
1.060184958E1,-5.755130777E-1,-4.249288559E-2,1.616228878E-2,5.773059566E-1
1.061179958E1,-4.936418259E-1,2.409169793E-2,-1.842340708E-1,5.274512821E-1
1.062174958E1,-3.612915614E-1,4.959169775E-2,-2.017359567E-1,4.167593131E-1
1.063170058E1,-2.743656841E-1,3.838258535E-2,-4.546794891E-2,2.807438082E-1
1.064165058E1,-3.057453516E-1,6.391094416E-2,1.437304080E-1,3.438360932E-1
1.065160058E1,-3.286146891E-1,8.662883878E-2,3.054772568E-1,4.569557134E-1
1.066155158E1,-2.910817042E-1,3.460382223E-3,5.132101178E-1,5.900213198E-1
1.067150158E1,-2.621648839E-1,-1.651049048E-2,7.031709516E-1,7.506346714E-1
1.068145158E1,-2.595456237E-1,-5.233316481E-2,6.313104254E-1,6.845842126E-1
1.069140258E1,-2.108842179E-1,-1.302730411E-1,3.134961283E-1,3.996536514E-1
1.070135258E1,-1.536344218E-1,-1.764514267E-1,-5.950945258E-2,2.414125442E-1
1.071130258E1,-1.541820136E-1,-2.169556743E-1,-3.782669055E-1,4.625231991E-1
1.072125225E1,-1.459973735E-1,-1.949692664E-1,-4.809925443E-1,5.391494000E-1
1.073120325E1,-6.591449261E-2,-8.238639146E-2,-2.483254015E-1,2.698105685E-1
1.074115325E1,2.960328341E-2,-1.006340897E-1,-1.870056510E-2,1.065517974E-1
1.075110325E1,5.877474993E-2,-6.526369750E-3,3.467328715E-1,3.517396039E-1
1.076105425E1,1.166522446E-1,-3.065373570E-2,5.109951925E-1,5.250366506E-1
1.077100425E1,1.855795151E-1,-5.508544922E-2,5.221698064E-1,5.568980785E-1
1.078095425E1,1.906051970E-1,6.813175678E-3,3.031763774E-1,3.581796704E-1
1.079090425E1,1.267521402E-1,3.988064200E-2,-6.832471490E-2,1.494149836E-1
1.080085525E1,-3.852321088E-2,1.157061651E-1,-5.001258034E-1,5.147793446E-1
1.081080525E1,-1.211759430E-1,1.489771146E-1,-9.265544701E-1,9.462457270E-1
1.082075525E1,-1.272693264E-1,2.190112630E-1,-9.851295376E-1,1.017174331E0
1.083070625E1,-8.419201165E-2,1.198033091E-1,-8.991848230E-1,9.110293484E-1
1.084065625E1,-5.520063937E-3,8.902356595E-2,-5.590288997E-1,5.660997943E-1
1.085060625E1,1.244439518E-1,2.826660991E-2,-2.991464764E-1,3.252290158E-1
1.086055625E1,2.976949051E-1,-4.542964965E-2,-1.097434670E-1,3.205148017E-1
1.087050725E1,3.772857428E-1,-5.701619983E-2,-9.307013154E-2,3.927561942E-1
1.088045725E1,2.605288330E-1,-3.077886611E-2,-1.823881048E-1,3.195121785E-1
1.089040725E1,6.430738539E-2,-7.393716484E-2,-3.637699038E-1,3.767368937E-1
1.090035825E1,-6.599430710E-2,-4.236658573E-2,-3.552423245E-1,3.637956641E-1
1.091030825E1,-4.826525688E-2,-5.729394257E-3,-2.140653956E-1,2.195139052E-1
1.092025825E1,3.962745756E-2,-2.192062676E-2,-2.007583022E-2,4.953673616E-2
1.093020825E1,1.179874563E-1,-2.523599803E-2,1.892118055E-1,2.244081165E-1
1.094015925E1,2.003074819E-1,-1.650812235E-1,1.113748401E-1,2.824522131E-1
1.095010925E1,1.762707478E-1,-1.850108734E-1,-5.806635976E-2,2.620536241E-1
1.096005925E1,9.716347486E-2,-1.285410959E-1,-2.051805514E-1,2.608881232E-1
1.097001025E1,5.608123004E-2,-8.427299559E-2,-2.668593210E-1,2.854136285E-1
1.097996025E1,-1.884966910E-2,-4.547818154E-2,-1.680548251E-1,1.751171015E-1
1.098991025E1,-1.311960241E-1,-8.033343405E-2,-4.050424755E-2,1.590800158E-1
1.099986125E1,-1.868749657E-1,-1.678437406E-1,1.554289323E-1,2.953843717E-1
1.100981125E1,-1.697414544E-1,-1.309434244E-1,3.909033233E-1,4.458292834E-1
1.101976125E1,-1.723361564E-1,-1.472173950E-1,4.626515830E-1,5.151885086E-1
1.102971125E1,-1.844431087E-1,-1.424966455E-1,3.182762271E-1,3.944924728E-1
1.103966225E1,-2.189747179E-1,9.172527194E-3,8.765093207E-2,2.360439540E-1
1.104961225E1,-2.163300222E-1,3.040844500E-2,-1.527585089E-1,2.665680290E-1
1.105956225E1,-1.951353273E-1,1.974400073E-2,-3.421761364E-1,3.944009759E-1
1.106951325E1,-1.186017063E-1,2.842916250E-2,-2.768726778E-1,3.025443137E-1
1.107946325E1,3.674331844E-2,-8.882212937E-3,-7.402575016E-2,8.311905223E-2
1.108941325E1,1.870518440E-1,-7.977444023E-2,9.475179076E-2,2.243440561E-1
1.109936325E1,2.304393536E-1,-1.181470853E-1,9.231701016E-2,2.749244620E-1
1.110931425E1,2.090160325E-1,-1.293830949E-1,-1.188639539E-1,2.730500442E-1
1.111926425E1,1.146372941E-1,-1.368970594E-1,-4.349240863E-1,4.701504812E-1
1.112921425E1,7.082089126E-2,-3.577326536E-3,-4.054529500E-1,4.116072042E-1
1.113916525E1,5.802513689E-2,-2.061669767E-2,-3.105742747E-1,3.166201902E-1
1.114911525E1,6.113965631E-2,-9.235355526E-2,-7.978174925E-2,1.365004185E-1
1.115906525E1,7.996915251E-2,-1.117929161E-1,2.870251983E-1,3.182391961E-1
1.116901625E1,1.531713223E-1,-1.885080931E-1,5.160156119E-1,5.703234756E-1
1.117896625E1,2.349022409E-1,-2.557095578E-1,7.084515721E-1,7.889677248E-1
1.118891625E1,3.018929136E-1,-3.340403205E-1,7.781223160E-1,8.989975560E-1
1.119886625E1,2.430468276E-1,-3.845751742E-1,7.341635334E-1,8.636931856E-1
1.120881725E1,1.312699914E-1,-4.877197659E-1,6.411483657E-1,8.161945893E-1
1.121876725E1,-1.311863762E-1,-5.950954029E-1,4.347106630E-1,7.485464343E-1
1.122871725E1,-4.793354434E-1,-4.790293416E-1,5.281813288E-1,8.591897890E-1
1.123866825E1,-5.953538498E-1,-4.279828566E-1,5.345892924E-1,9.074145930E-1
1.124861825E1,-5.583783969E-1,-4.198970345E-1,7.795402658E-1,1.046796532E0
1.125856825E1,-5.226141948E-1,-3.835934266E-1,9.071756279E-1,1.115005441E0
1.126851925E1,-3.989230719E-1,-3.624428782E-1,1.093622285E0,1.219226870E0
1.127846925E1,-3.065551910E-1,-4.966642517E-1,1.366453367E0,1.485882320E0
1.128841925E1,-4.314297903E-1,-6.290279648E-1,1.260341606E0,1.473183223E0
1.129836925E1,-6.048070434E-1,-6.568034086E-1,1.318142502E0,1.592068445E0
1.130832025E1,-6.755639076E-1,-7.665688026E-1,1.342317815E0,1.686959229E0
1.131827025E1,-6.632107875E-1,-7.468739185E-1,1.512291112E0,1.812372370E0
1.132822025E1,-5.413086203E-1,-7.365755099E-1,1.674044977E0,1.907350280E0
1.133817125E1,-2.417993242E-1,-8.561469769E-1,1.917089174E0,2.113453444E0
1.134812125E1,-6.029999614E-2,-8.957066068E-1,2.142108158E0,2.322617872E0
1.135807125E1,2.404503715E-1,-5.971083069E-1,2.377376727E0,2.462980880E0
1.136802225E1,8.295123249E-1,-4.854650795E-1,2.552586790E0,2.727538517E0
1.137797225E1,1.295194520E0,-5.326237509E-1,2.469508966E0,2.838959569E0
1.138792225E1,1.487326425E0,-5.778385153E-1,2.028220185E0,2.580642238E0
1.139787325E1,1.460049748E0,-6.638522270E-1,1.835752650E0,2.437710573E0
1.140782325E1,1.496326459E0,-7.632285807E-1,1.808955445E0,2.468568521E0
1.141777325E1,1.424100482E0,-7.998622638E-1,1.404860803E0,2.154408434E0
1.142772325E1,1.214517562E0,-1.022754470E0,1.615082240E0,2.264855460E0
1.143767425E1,8.566241097E-1,-1.259418769E0,1.976427303E0,2.495236539E0
1.144762425E1,8.706129885E-1,-1.372074296E0,2.397377129E0,2.896199569E0
1.145757425E1,1.536761709E0,-9.654967801E-1,3.222001766E0,3.697988097E0
1.146752525E1,2.381166308E0,-7.970545770E-1,3.910442997E0,4.647237181E0
1.147747525E1,3.822021986E0,-1.256611667E0,4.517014437E0,6.048995319E0
1.148742525E1,4.418607552E0,-1.793268827E0,3.657828078E0,6.009959404E0
1.149737625E1,4.829458652E0,-2.279918553E0,2.913837129E0,6.083760867E0
1.150732625E1,4.455112304E0,-2.862750883E0,2.134420239E0,5.709563733E0
1.151727625E1,3.320359535E0,-2.260983514E0,4.644390768E-1,4.043827092E0
1.152722725E1,2.348600825E0,-1.702084423E0,-2.079135108E0,3.568728067E0
1.153717725E1,3.152167300E0,-2.677375728E0,-2.730680992E0,4.955917489E0
1.154712725E1,4.350830137E0,-2.206753805E0,-1.353753507E0,5.062818760E0
1.155707725E1,5.022622005E0,-1.200945955E0,-1.070803526E-1,5.165314046E0
1.156702825E1,5.468754035E0,-1.191913688E0,6.599182203E-2,5.597524797E0
1.157697825E1,5.245448869E0,-1.817357017E0,-1.794371174E0,5.834148462E0
1.158692825E1,4.265865415E0,-1.480441621E0,-4.358022212E0,6.275481873E0
1.159687925E1,3.336384414E0,-1.009816044E0,-5.604836869E0,6.600407997E0
1.160682925E1,2.437897164E0,-6.548595748E-1,-5.992200873E0,6.502203853E0
1.161677925E1,1.404759062E0,-5.004493736E-1,-5.136453846E0,5.348547065E0
1.162673025E1,2.273759973E-1,-5.598008783E-1,-4.086908457E0,4.131331214E0
1.163668025E1,-4.734315097E-1,-7.936269392E-1,-3.609983236E0,3.726387000E0
1.164663025E1,-7.970292878E-1,-1.033051563E0,-3.565201165E0,3.796460268E0
1.165658125E1,-7.636469489E-1,-1.036424968E0,-3.753445256E0,3.968083249E0
1.166653125E1,-5.386279643E-1,-8.140800610E-1,-4.418067269E0,4.524617644E0
1.167648125E1,-2.713289326E-1,-3.770660336E-1,-4.940107852E0,4.961901226E0
1.168643225E1,-9.788414419E-2,-3.614286786E-1,-4.935200284E0,4.949385198E0
1.169638225E1,-2.946125454E-1,-4.843969394E-1,-4.338931637E0,4.375815890E0
1.170633225E1,-4.276179904E-1,-7.463925464E-1,-3.430937984E0,3.537130819E0
1.171628213E1,-9.132280809E-1,-1.184136306E0,-3.101985326E0,3.443613986E0
1.172623313E1,-1.211978116E0,-1.629018347E0,-2.730803491E0,3.402922191E0
1.173618313E1,-1.415165352E0,-1.708576294E0,-2.651246275E0,3.457026575E0
1.174613313E1,-1.499061787E0,-1.211996827E0,-2.701070400E0,3.318418879E0
1.175608413E1,-7.948126084E-1,-6.773189494E-1,-2.668552864E0,2.865599838E0
1.176603413E1,-1.179886258E-1,-5.719239105E-1,-2.935357221E0,2.992881603E0
1.177598413E1,2.584469318E-2,-2.456222337E-1,-3.289841162E0,3.299098832E0
1.178593513E1,1.650622201E-1,-1.918386671E-1,-3.118524760E0,3.128776804E0
1.179588513E1,-6.673164099E-1,1.001733437E0,-2.339750479E0,2.631199988E0
1.180583513E1,-3.802444339E-2,-1.318601363E0,-1.569572775E0,2.050296103E0
1.181578613E1,3.969458359E-1,-1.812456027E0,-2.823380885E-1,1.876773200E0
1.182573612E1,-7.061389983E-2,-1.267356218E-1,3.354740578E-1,3.655011411E-1
1.183568613E1,2.146857852E-1,-5.516409427E-1,3.335894545E-2,5.928832391E-1
1.184563713E1,1.647587496E-1,-3.487950383E-1,-9.081778407E-2,3.962969773E-1
1.185558712E1,6.858959377E-2,-3.134532975E-1,-1.540402186E-1,3.559296152E-1
1.186553713E1,-2.098741114E-2,-3.814166544E-1,3.159484506E-1,4.957242773E-1
1.187548713E1,5.003871739E-2,-4.540914054E-1,7.274520993E-1,8.590049095E-1
1.188543812E1,1.426790786E-1,-5.758299237E-1,8.603721750E-1,1.045073060E0
1.189538813E1,2.677668089E-1,-6.819153725E-1,6.183091414E-1,9.586520920E-1
1.190533813E1,3.723284733E-1,-5.427226963E-1,2.569979918E-1,7.065581256E-1
1.191528912E1,4.335809809E-1,-4.408237807E-1,-1.542343462E-1,6.372647065E-1
1.192523913E1,5.293326455E-1,-4.414101103E-1,-3.254221094E-1,7.621912387E-1
1.193518913E1,4.102067363E-1,-4.389754028E-1,-1.222389668E-1,6.131160867E-1
1.194514012E1,3.784557706E-1,-3.888095085E-1,1.575707674E-1,5.650045583E-1
1.195509013E1,3.586980289E-1,-5.837690538E-1,3.491945493E-1,7.690171763E-1
1.196504013E1,6.748330057E-2,-4.259632283E-1,1.114222026E-1,4.454363871E-1
1.197499112E1,1.675952339E-1,-1.549331615E-1,1.026654124E-2,2.284684854E-1
1.198494113E1,3.160420060E-1,-1.350923894E-1,-4.172245646E-1,5.405634472E-1
1.199489113E1,2.553180867E-1,-3.135074573E-1,-1.182413424E0,1.249630248E0
1.200484213E1,5.159132856E-1,-7.078166375E-1,-1.603679584E0,1.827281894E0
1.201479213E1,2.258633226E-1,-7.950440850E-1,-2.044546781E0,2.205284761E0
1.202474213E1,-2.014155293E-1,-8.465089383E-1,-2.388309267E0,2.541882521E0
1.203469313E1,-4.874543023E-1,-9.414634082E-1,-2.558466750E0,2.769425420E0
1.204464313E1,-7.122487539E-1,-8.712287734E-1,-2.718921365E0,2.942596005E0
1.205459313E1,-8.041915423E-1,-7.399198249E-1,-2.796151389E0,3.002110586E0
1.206454413E1,-4.596209711E-1,-6.207893110E-1,-2.649344176E0,2.759647689E0
1.207449413E1,-1.288714635E-1,-2.158796404E-1,-2.617806634E0,2.629852362E0
1.208444413E1,1.042780160E0,-4.403355748E-1,-2.561568114E0,2.800520859E0
1.209439513E1,1.742930440E0,-5.583207288E-1,-2.584147722E0,3.166598807E0
1.210434513E1,2.262002977E0,-4.873269426E-1,-2.938667915E0,3.740309363E0
1.211429513E1,2.304394121E0,-6.502622015E-1,-3.289561665E0,4.068696246E0
1.212424613E1,1.796340078E0,-5.155376751E-1,-3.561125071E0,4.021719600E0
1.213419613E1,9.833876520E-1,-5.992929728E-1,-3.392349869E0,3.582490890E0
1.214414613E1,4.314023083E-1,-6.079554766E-1,-3.205736274E0,3.291270708E0
1.215409613E1,7.428712070E-1,-1.280669963E-2,-3.091027351E0,3.179067745E0
1.216404712E1,2.505658207E0,2.397969269E-1,-2.782201102E0,3.751862016E0
1.217399713E1,3.822644715E0,5.758585019E-1,-3.925392573E0,5.509349551E0
1.218394713E1,4.040358773E0,2.956803749E-1,-4.728678381E0,6.226742739E0
1.219389812E1,3.569533952E0,-7.406047531E-1,-4.225076408E0,5.580442517E0
1.220384813E1,2.909540595E0,-1.816755192E0,-3.066570495E0,4.601073842E0
1.221379813E1,2.538544117E0,-2.729586394E0,-1.187419810E0,3.912136746E0
1.222374912E1,2.589314321E0,-2.857674038E0,1.008068749E0,3.985856516E0
1.223369913E1,3.305126953E0,-2.314114240E0,1.098028747E0,4.181465774E0
1.224364913E1,3.585209752E0,-2.535952047E0,-6.799879110E-1,4.443778270E0
1.225360012E1,4.573901414E0,-2.864432250E0,-1.884619001E0,5.716409278E0
1.226355013E1,5.826452190E0,-3.196526324E0,-2.529715991E0,7.110892255E0
1.227350013E1,6.092301112E0,-2.934499142E0,-1.144136966E0,6.858313747E0
1.228345112E1,8.259333027E0,-8.171553456E0,-1.174395137E0,1.167775971E1
1.229340113E1,6.264968805E0,-7.212017766E0,2.902458447E-1,9.557576944E0
1.230335113E1,4.352080271E0,-4.826323959E0,1.227059839E0,6.613598226E0
1.231330213E1,5.122042798E0,-6.292913818E0,1.402716045E0,8.234300155E0
1.232325213E1,5.034703522E0,-4.743762444E0,4.746445731E0,8.389294890E0
1.233320213E1,4.835404685E0,-4.124558678E0,7.618695708E0,9.921574827E0
1.234315313E1,4.121946727E0,-2.921665966E0,9.808331789E0,1.103312963E1
1.235310313E1,3.127968890E0,-1.517240780E0,9.644444275E0,1.025190296E1
1.236305313E1,2.784831764E0,-1.051940408E0,7.133864467E0,7.730063959E0
1.237300413E1,2.152365052E0,-1.077447132E0,4.613546121E0,5.203688638E0
1.238295413E1,8.180014962E-1,-9.668195665E-1,2.342417979E0,2.662853453E0
1.239290413E1,-7.513991518E-1,-1.093287240E0,-2.544983071E-1,1.350794974E0
1.240285513E1,-1.756971213E0,-1.020763054E0,-1.834596655E0,2.737635831E0
1.241280513E1,-1.767320931E0,-7.814382720E-1,-1.955256289E0,2.749017316E0
1.242275513E1,-1.222110244E0,-4.101272142E-1,-5.391150373E-1,1.397284082E0
1.243270613E1,-7.757231303E-1,-2.279215425E-1,7.662542224E-1,1.113930042E0
1.244265613E1,-4.350137680E-1,-1.265816939E-1,1.772710310E0,1.829688975E0
1.245260613E1,-4.494783908E-1,6.946726084E-2,2.403626633E0,2.446278298E0
1.246255713E1,-7.209616899E-2,3.053638208E-1,2.435355964E0,2.455484390E0
1.247250712E1,2.637323762E-1,5.431741744E-1,1.937112964E0,2.029039079E0
1.248245713E1,5.356064887E-1,8.314974546E-1,9.167796797E-1,1.348609398E0
1.249240813E1,5.138841556E-1,8.216770560E-1,-2.796933746E-1,1.008691476E0
1.250235812E1,3.782900020E-2,5.015648031E-1,-1.440465084E0,1.525758154E0
1.251230813E1,-5.110615584E-1,5.470011771E-2,-2.178789496E0,2.238593239E0
1.252225913E1,-1.050938488E0,-1.187551957E-1,-2.130109672E0,2.378222386E0
1.253220912E1,-9.664204940E-1,-3.501499844E-1,-1.198824804E0,1.579162593E0
1.254215913E1,-3.725948140E-1,-4.810264581E-1,3.185820365E-1,6.868099175E-1
1.255211013E1,-5.282184586E-2,-3.960588133E-1,1.506267895E0,1.558363149E0
1.256206012E1,8.175720182E-1,-4.487293625E-1,2.063563680E0,2.264525802E0
1.257201013E1,1.470976294E0,-6.793762922E-2,1.904313008E0,2.407238004E0
1.258196113E1,1.366741928E0,-1.105825424E-2,6.927465355E-1,1.532319661E0
1.259191112E1,1.184773945E0,-1.479509282E-1,-2.818808180E-1,1.226798913E0
1.260186113E1,7.003100552E-1,-3.377404386E-1,-1.050653436E0,1.307048362E0
1.261181213E1,3.503629692E-1,-2.079053539E-1,-8.492735749E-1,9.419365432E-1
1.262176213E1,1.104708606E-1,-1.957565939E-1,-4.560202557E-1,5.084082304E-1
1.263171213E1,3.242266461E-2,-1.743078375E-1,3.105017692E-1,3.575553105E-1
1.264166313E1,-2.156862438E-2,-1.238229775E-1,6.523984087E-1,6.643952280E-1
1.265161313E1,6.777039886E-2,-1.311746818E-1,6.754487175E-1,6.913975658E-1
1.266156313E1,2.632488115E-1,1.261069000E-2,6.034613067E-1,6.585017198E-1
1.267151413E1,3.020142433E-1,1.366880214E-1,4.494000381E-1,5.584412347E-1
1.268146413E1,-4.145398155E-2,2.388301080E-1,-5.267347276E-2,2.480579526E-1
1.269141413E1,-1.732040294E-1,1.772694522E-1,-6.263250893E-1,6.735779183E-1
1.270136513E1,-2.032388373E-1,2.382114726E-1,-7.824211890E-1,8.427536102E-1
1.271131513E1,-8.799270183E-2,1.370815390E-1,-6.228038961E-1,6.437536461E-1
1.272127313E1,1.063199222E-2,2.325730026E-2,-2.046355909E-1,2.062272202E-1
1.273122413E1,3.583202988E-2,-2.387944400E-2,2.622587317E-1,2.657702101E-1
1.274117413E1,9.729094416E-2,1.382983446E-2,4.202376348E-1,4.315743989E-1
1.275112413E1,2.548736984E-1,-6.049061537E-2,3.787440383E-1,4.605070719E-1
1.276107513E1,3.717535459E-1,-8.508634329E-2,3.653603464E-1,5.281368832E-1
1.277102513E1,4.210292016E-1,-9.352679908E-2,1.758251899E-1,4.657546008E-1
1.278097513E1,2.378863674E-1,-1.120051700E-1,-3.204636705E-1,4.145262911E-1
1.279092613E1,8.379513189E-2,-1.482924056E-1,-9.230332768E-1,9.386174363E-1
1.280087613E1,7.900041506E-2,-1.353683048E-1,-9.982401645E-1,1.010469727E0
1.281082613E1,5.498780072E-2,-1.366231173E-1,-6.651085013E-1,6.812186528E-1
1.282077713E1,6.948787227E-2,-1.410471207E-1,-1.627262574E-1,2.262801129E-1
1.283072713E1,1.135425492E-1,-1.035699767E-1,2.421361238E-1,2.867900852E-1
1.284067713E1,1.927367994E-1,-1.503015089E-1,3.941286474E-1,4.637622324E-1
1.285062813E1,2.162931848E-1,-8.511031687E-2,5.378555471E-1,5.859309663E-1
1.286057813E1,2.318502867E-1,2.821281552E-2,4.282202536E-1,4.877736196E-1
1.287052813E1,2.539065689E-1,5.352365792E-2,3.275060570E-1,4.178439243E-1
1.288047913E1,1.882847294E-1,7.365094364E-2,1.636524564E-1,2.601109904E-1
1.289042913E1,1.142519626E-1,1.115876788E-1,-5.536143780E-3,1.597997807E-1
1.290037912E1,1.074159828E-1,1.120794296E-1,-2.235653669E-1,2.721791049E-1
1.291033013E1,1.050858673E-1,1.583934706E-1,-2.778918475E-1,3.366829517E-1
1.292028013E1,8.402215004E-2,1.976253641E-1,-1.831020498E-1,2.822089064E-1
1.293023012E1,1.059512553E-1,2.326917011E-1,-1.683220428E-1,3.061101212E-1
1.294018113E1,1.207982129E-1,2.834917259E-1,-2.763183618E-1,4.138980599E-1
1.295013113E1,7.511947185E-2,1.994824398E-1,-3.684827596E-1,4.256944009E-1
1.296008213E1,-1.161780354E-1,1.135084891E-1,-3.493658727E-1,3.852765579E-1
1.297003213E1,-3.153257221E-1,2.115171790E-2,-3.597189528E-1,4.788271412E-1
1.297998213E1,-3.797658393E-1,4.471950531E-3,-3.695516306E-1,5.299155581E-1
1.298993313E1,-4.124921206E-1,-6.527363777E-2,-5.954623157E-1,7.273140771E-1
1.299988313E1,-3.216345754E-1,-5.251150489E-2,-5.759723765E-1,6.617782383E-1
1.300983313E1,-1.226313150E-1,3.979439557E-2,-3.540717119E-1,3.768140264E-1
1.301978413E1,5.749479443E-2,-5.003637850E-2,-2.139981526E-1,2.271662384E-1
1.302973413E1,2.021522784E-1,-4.268993676E-2,-1.024022877E-2,2.068642953E-1
1.303968413E1,2.574108052E-1,-1.312512803E-1,4.302556694E-2,2.921274048E-1
1.304963513E1,2.262612256E-1,-2.118153870E-1,1.454138213E-1,3.423522745E-1
1.305958513E1,1.332516128E-1,-3.253127664E-1,5.839848161E-2,3.563632570E-1
1.306953513E1,8.512259603E-2,-2.628937393E-1,6.923688054E-3,2.764180023E-1
1.307948613E1,1.021838942E-1,-2.481301045E-1,-3.204274178E-4,2.683471626E-1
1.308943613E1,1.390178445E-1,-1.955186123E-1,1.392356533E-1,2.773807058E-1
1.309938613E1,8.240276366E-2,-2.281437367E-1,3.125693446E-1,3.956505722E-1
1.310933713E1,7.538727432E-2,-2.439136773E-1,3.963552672E-1,4.714600947E-1
1.311928713E1,8.085588276E-2,-2.088333070E-1,4.399158543E-1,4.936344627E-1
1.312923713E1,1.503123263E-1,-1.202234316E-1,3.212325794E-1,3.744834295E-1
1.313918813E1,2.039476660E-1,3.891322017E-3,2.809628052E-1,3.472029532E-1
1.314913813E1,1.952543181E-1,6.996661305E-2,6.704768300E-2,2.179792822E-1
1.315908813E1,-1.594389528E-2,5.576080263E-2,-1.282592601E-1,1.407619007E-1
1.316903913E1,-2.400650400E-1,6.945205808E-2,-2.810645467E-1,3.761011715E-1
1.317898913E1,-3.293230793E-1,1.313150150E-1,-3.364739317E-1,4.887862829E-1
1.318893913E1,-2.539059842E-1,-2.209779739E-2,-3.822728330E-1,4.594443168E-1
1.319889013E1,-1.033521679E-1,1.074080890E-1,-4.161662185E-1,4.420548491E-1
1.320884013E1,3.418486923E-2,6.886967540E-2,-2.614635104E-1,2.725340433E-1
1.321879113E1,4.525949568E-2,1.271143752E-1,-2.296043712E-1,2.663168294E-1
1.322874112E1,-5.483577311E-2,1.046827018E-1,-7.833631754E-2,1.417815528E-1
1.323869113E1,-1.128249496E-1,6.786921680E-2,-1.537876189E-2,1.325601983E-1
1.324864213E1,-1.930306220E-1,3.249239266E-2,1.553400546E-1,2.498941960E-1
1.325859212E1,-3.377097407E-1,-6.597354949E-2,8.127512813E-2,3.535619106E-1
1.326854213E1,-2.673016629E-1,-2.799518216E-1,-1.380252796E-1,4.109430364E-1
1.327849313E1,-1.001978874E-1,-2.201464999E-1,-2.484902930E-1,3.467730148E-1
1.328844312E1,1.376490113E-1,-1.949163491E-1,-3.394618589E-1,4.149385341E-1
1.329839313E1,2.852344885E-1,-1.630811834E-1,-2.541568297E-1,4.153912372E-1
1.330834413E1,3.332845679E-1,-1.511897010E-1,-5.261850893E-2,3.697372531E-1
1.331829412E1,2.852008671E-1,-1.344385976E-1,3.090808958E-1,4.415249384E-1
1.332824413E1,2.063742605E-1,-1.656662375E-1,5.890274549E-1,6.457468391E-1
1.333819513E1,1.360419041E-1,-1.853304237E-1,7.025645953E-1,7.392237660E-1
1.334814512E1,9.852178305E-2,-1.808000010E-1,6.437690878E-1,6.758948295E-1
1.335809513E1,6.648810446E-2,-1.737915283E-1,4.223981810E-1,4.615673154E-1
1.336804613E1,4.499900222E-2,-1.955262136E-1,1.917278624E-1,2.775157358E-1
1.337799612E1,-5.820026100E-3,-1.490320784E-1,1.089061457E-1,1.846753412E-1
1.338794713E1,-7.579453290E-2,-7.845852435E-2,7.663185418E-2,1.333153867E-1
1.339789713E1,-1.325075546E-1,1.667216599E-2,1.054527801E-1,1.701661011E-1
1.340784713E1,-4.258702576E-2,1.509324235E-1,5.961762607E-2,1.677751846E-1
1.341779813E1,5.173440993E-2,3.002843446E-1,-3.943713069E-2,3.072497747E-1
1.342774813E1,8.468785554E-2,2.092759413E-1,-6.166356683E-2,2.340317242E-1
1.343769813E1,-8.419142693E-2,2.274853402E-1,-2.279917091E-1,3.328933700E-1
1.344764913E1,-2.107889083E-1,1.088850957E-1,-3.604428381E-1,4.315170535E-1
1.345759913E1,-2.070887902E-1,8.829295635E-5,-4.398199600E-1,4.861351376E-1
1.346754913E1,-1.698160064E-1,4.144681871E-2,-5.482185674E-1,5.754119502E-1
1.347750013E1,-9.600046366E-2,-5.942583740E-2,-3.936117536E-1,4.094847149E-1
1.348745013E1,-1.738201797E-2,-1.133219630E-1,-1.957963550E-1,2.268925174E-1
1.349740013E1,3.512393206E-2,-1.448910803E-1,1.107304770E-1,1.857104043E-1
1.350735113E1,8.337486327E-2,-2.458806807E-1,3.064192432E-1,4.016234923E-1
1.351730113E1,3.146825284E-2,-4.323092115E-1,5.220464301E-1,6.785381201E-1
1.352725213E1,-1.425095093E-1,-5.936894399E-1,8.085553193E-1,1.013182025E0
1.353720213E1,-3.177186951E-1,-8.174179441E-1,9.910135907E-1,1.323338657E0
1.354715213E1,-4.522976258E-1,-8.381925166E-1,1.306505374E0,1.616816665E0
1.355710313E1,-5.383765340E-1,-8.693634385E-1,1.604237993E0,1.902425194E0
1.356705313E1,-5.540339157E-1,-8.364114547E-1,1.920189952E0,2.166487285E0
1.357700313E1,-6.892449304E-1,-7.488277656E-1,2.184053745E0,2.409541939E0
1.358695412E1,-6.462909919E-1,-9.173030055E-1,2.687508368E0,2.912359538E0
1.359690413E1,-7.216197941E-1,-1.109628453E0,3.163301568E0,3.429065068E0
1.360685413E1,-1.053905073E0,-1.222528832E0,3.724741859E0,4.059432789E0
1.361680512E1,-1.192705693E0,-1.650777737E0,4.398939857E0,4.847503056E0
1.362675513E1,-8.730121011E-1,-1.988278440E0,4.753886313E0,5.226359762E0
1.363670613E1,-6.295697093E-2,-1.767923194E0,4.262061217E0,4.614616107E0
1.364665612E1,4.815886679E-1,-1.162406591E0,3.155363388E0,3.396974365E0
1.365660613E1,8.586715123E-1,-1.080079257E0,2.129205108E0,2.537203649E0
1.366655713E1,9.904189289E-1,-1.100212974E0,1.790048473E0,2.322858537E0
1.367650712E1,9.640973952E-1,-8.234215727E-1,1.484854222E0,1.952510931E0
1.368645713E1,1.165926907E0,-1.214591529E0,1.764763359E0,2.439058804E0
1.369640813E1,1.600839592E0,-1.332375795E0,1.766571903E0,2.731060040E0
1.370635812E1,2.361556501E0,-1.092761283E0,1.246885993E0,2.885446414E0
1.371630813E1,3.168743572E0,-1.628604949E0,1.263597336E0,3.780207419E0
1.372625150E1,3.618789142E0,-1.520968088E0,1.740435433E0,4.293960209E0
1.373620150E1,4.200430979E0,-1.460419731E0,2.234868972E0,4.977055909E0
1.374615250E1,4.689954611E0,-1.634763383E0,2.557956288E0,5.586704390E0
1.375610250E1,5.310702041E0,-2.574627285E0,2.929755004E0,6.589061103E0
1.376605250E1,6.000667641E0,-3.079216268E0,3.410414842E0,7.557811479E0
1.377600350E1,6.403329130E0,-2.905647811E0,3.222499949E0,7.734980225E0
1.378595350E1,6.567232432E0,-2.520743731E0,3.490626361E0,7.852844273E0
1.379590350E1,9.062289053E0,-7.466235407E0,2.914632935E0,1.209813371E1
1.380585450E1,8.357758039E0,-6.723432612E0,3.457552171E0,1.126993046E1
1.381580450E1,7.697265329E0,-6.792826783E0,3.907702407E0,1.098455859E1
1.382575550E1,6.506114995E0,-5.740574718E0,8.454106119E-1,8.717708961E0
1.383570550E1,4.142386839E0,-2.353791398E0,-5.225915076E0,7.071767180E0
1.384565550E1,3.876202871E0,-5.810408599E0,-1.026443157E1,1.241548840E1
1.385560650E1,2.074824833E0,-1.071921733E0,-1.005605083E1,1.032366566E1
1.386555650E1,2.405819339E-1,9.367807386E-1,-7.754517757E0,7.814600659E0
1.387550650E1,8.162303746E-2,1.792015331E0,-5.251551608E0,5.549484260E0
1.388545750E1,-2.858890843E-1,-4.237365355E-1,-5.330858563E0,5.355309351E0
1.389540750E1,-4.981114376E-1,1.768308745E-1,-7.320514022E0,7.339571494E0
1.390535750E1,-5.851314551E-1,-6.686761799E-1,-9.233333559E0,9.275988102E0
1.391530850E1,-5.137334436E-1,-9.373954272E-1,-9.618948076E0,9.678160689E0
1.392525850E1,-1.688746047E-1,-8.068679591E-1,-7.686868980E0,7.730944913E0
1.393520950E1,-1.130763799E-1,-8.656663902E-1,-5.619542617E0,5.686952065E0
1.394515950E1,-2.642994100E-1,-8.006304418E-1,-4.408063853E0,4.487971726E0
1.395510950E1,-3.126266474E-1,-8.785315803E-1,-4.118043126E0,4.222301783E0
1.396506050E1,-4.033672482E-1,-1.239334899E0,-4.537558630E0,4.721026842E0
1.397501050E1,-5.735498750E-1,-1.258202695E0,-4.957354800E0,5.146591113E0
1.398496150E1,-5.655532229E-1,-1.168482068E0,-4.895700588E0,5.064887466E0
1.399491150E1,-6.360560256E-1,-1.236931255E0,-4.497063153E0,4.707243694E0
1.400486150E1,-1.055596672E0,-1.194762817E0,-3.751820315E0,4.076505636E0
1.401481250E1,-1.434336618E0,-1.341505199E0,-2.812943423E0,3.430686291E0
1.402476250E1,-1.734251418E0,-1.759682421E0,-1.603676222E0,2.945485975E0
1.403471250E1,-1.836099975E0,-1.917988183E0,-4.509242611E-1,2.693190390E0
1.404466350E1,-1.722763394E0,-1.837900332E0,4.916397393E-1,2.566612743E0
1.405461350E1,-1.399405936E0,-1.653878223E0,9.291471255E-1,2.357321474E0
1.406456350E1,-1.150539667E0,-1.195133603E0,8.764018781E-1,1.876210571E0
1.407451450E1,-8.224126357E-1,-7.639760010E-1,3.693418618E-1,1.181708629E0
1.408446450E1,-6.694816339E-1,-5.224070571E-1,-3.299934626E-1,9.110491078E-1
1.409441550E1,-7.508000314E-1,-5.269262970E-1,-6.152954865E-1,1.104509188E0
1.410436550E1,-9.119978267E-1,-7.205218332E-1,-5.610388801E-1,1.290603104E0
1.411431550E1,-9.943973744E-1,-1.069827626E0,-3.002556932E-1,1.491144114E0
1.412426650E1,-1.004175673E0,-1.165312292E0,-2.894009221E-1,1.565271355E0
1.413421650E1,-6.825507456E-1,-9.885952554E-1,-4.636467791E-1,1.287697338E0
1.414416750E1,-1.395034558E-1,-8.626573399E-1,-9.497538829E-1,1.290608902E0
1.415411750E1,2.511811817E-1,-7.136884115E-1,-1.559412507E0,1.733265849E0
1.416406750E1,5.673395473E-1,-6.158272907E-1,-1.994361006E0,2.163005602E0
1.417401850E1,8.735061908E-1,-6.307862225E-1,-2.228628824E0,2.475417290E0
1.418396850E1,1.093489553E0,-7.105125694E-1,-2.188573058E0,2.547626257E0
1.419391850E1,1.343775526E0,-4.799900392E-1,-2.318572741E0,2.722480975E0
1.420386950E1,1.557987102E0,-2.288074322E-1,-2.532189071E0,2.981888352E0
1.421381950E1,1.542811823E0,-4.662801823E-1,-3.030921483E0,3.432807971E0
1.422377050E1,8.398005009E-1,-6.013733025E-1,-3.843535354E0,3.979909390E0
1.423372050E1,-1.664526880E-2,-3.916829764E-1,-4.415964903E0,4.433332679E0
1.424367050E1,-3.124190712E-1,9.177120913E-2,-4.912244115E0,4.923024465E0
1.425362150E1,-2.439364815E-1,6.171923232E-1,-5.241300854E0,5.283149252E0
1.426357150E1,9.127152801E-2,6.468254274E-1,-5.814509252E0,5.851088058E0
1.427352250E1,3.570146155E-1,2.754964625E-1,-6.407064916E0,6.422915115E0
1.428347250E1,7.099326718E-1,-5.950985823E-1,-6.001196229E0,6.072273290E0
1.429342250E1,1.828316161E0,-1.470381194E0,-4.947382373E0,5.475523097E0
1.430337350E1,3.043326058E0,-2.806746251E0,-3.463397632E0,5.397664419E0
1.431332350E1,4.197985674E0,-3.374060948E0,-1.365210249E0,5.556183044E0
1.432327350E1,5.519217845E0,-3.732677701E0,-4.311122864E-1,6.676863503E0
1.433322450E1,7.149872389E0,-4.021680720E0,-9.232344210E-1,8.255116764E0
1.434317450E1,8.227435881E0,-4.115107531E0,-1.915457801E0,9.396477518E0
1.435312550E1,9.034794860E0,-4.978786599E0,-3.524288782E0,1.090121303E1
1.436307550E1,1.031430832E1,-6.404442440E0,-4.475175855E0,1.293943731E1
1.437302550E1,1.069028662E1,-6.909682218E0,-1.915209879E0,1.287221680E1
1.438297650E1,9.614886015E0,-5.671718491E0,1.543499456E0,1.126928633E1
1.439292650E1,8.310776830E0,-4.274944387E0,3.526046455E0,9.988852018E0
1.440287750E1,6.338089991E0,-3.095024800E0,4.081210345E0,8.149039277E0
1.441282750E1,4.113997437E0,-2.481856531E0,4.470040830E0,6.562457755E0
1.442277750E1,1.979395350E0,-2.344294935E0,5.023988500E0,5.886780541E0
1.443272850E1,4.776339402E-1,-2.246887924E0,5.080279645E0,5.575471352E0
1.444267850E1,-2.100116306E-1,-2.149347011E0,4.409337376E0,4.909791600E0
1.445262850E1,-3.290813700E-1,-1.840025795E0,4.041391391E0,4.452733301E0
1.446257950E1,-2.374115735E-3,-1.350349551E0,3.644400532E0,3.886528629E0
1.447252950E1,6.384715835E-1,-9.249306983E-1,2.628363197E0,2.858572345E0
1.448248050E1,1.197698411E0,-6.697839350E-1,1.465215763E0,2.007473347E0
1.449243050E1,1.519021257E0,-3.573976082E-1,5.043118250E-1,1.639966172E0
1.450238050E1,1.419540531E0,-1.580718738E-1,2.438476038E-1,1.448980224E0
1.451233150E1,9.898170311E-1,-1.517890406E-1,5.846402889E-1,1.159561096E0
1.452228150E1,3.695245872E-1,-2.735660774E-1,1.497171382E0,1.566176544E0
1.453223250E1,-3.327230890E-1,-2.867404389E-1,2.365862975E0,2.406290163E0
1.454218250E1,-9.440832531E-1,-3.485191959E-1,2.724504286E0,2.904424629E0
1.455213250E1,-1.253059338E0,-3.581150615E-1,2.479428182E0,2.801065549E0
1.456208350E1,-1.402393132E0,-2.390365148E-1,2.135347608E0,2.565843791E0
1.457203350E1,-1.399289138E0,-1.582402736E-1,1.772393391E0,2.263720037E0
1.458198450E1,-1.140349213E0,-1.208017212E-1,1.110116111E0,1.596041091E0
1.459193450E1,-4.388146409E-1,8.643705010E-2,1.650914562E-1,4.767440001E-1
1.460188450E1,2.636229420E-1,2.913164699E-1,-8.596354258E-1,9.451642220E-1
1.461183550E1,6.623014724E-1,2.997826535E-1,-1.284818636E0,1.476235688E0
1.462178550E1,6.795530974E-1,2.084982616E-1,-8.817893565E-1,1.132614854E0
1.463173550E1,5.233866119E-1,5.687001944E-3,-1.384094417E-1,5.414084051E-1
1.464168650E1,3.248669893E-1,-1.442209893E-1,7.128211963E-1,7.965251487E-1
1.465163650E1,1.004703677E-1,-3.223061281E-1,1.132123861E0,1.181389001E0
1.466158750E1,-2.201292871E-1,-4.407169229E-1,1.119993812E0,1.223549937E0
1.467153750E1,-4.226518039E-1,-3.465293884E-1,7.673125684E-1,9.420646167E-1
1.468148750E1,-3.499612655E-1,-2.958913314E-1,4.248586893E-2,4.602495154E-1
1.469143850E1,-1.821868509E-1,-2.059553075E-1,-4.081333137E-1,4.921203502E-1
1.470138850E1,-1.493819977E-1,-8.487876713E-2,-4.806574988E-1,5.104419825E-1
1.471133950E1,-1.253534131E-1,-1.076636124E-1,-4.774082011E-1,5.051965183E-1
1.472128946E1,1.202125411E-2,-4.931775570E-2,-3.799228370E-1,3.832989873E-1
1.473123946E1,2.494489075E-1,5.346693993E-3,-3.809788442E-1,4.554099519E-1
1.474119046E1,5.510380217E-1,1.158181393E-1,-8.344070292E-1,1.006623978E0
1.475114046E1,7.209434905E-1,2.431985629E-1,-9.580996138E-1,1.223462271E0
1.476109146E1,7.506252728E-1,1.592454100E-1,-7.303534877E-1,1.059345844E0
1.477104146E1,5.818568681E-1,6.181968749E-2,-2.802763420E-1,6.487942021E-1
1.478099146E1,1.594169527E-1,-1.994157815E-1,1.026192194E-1,2.751565425E-1
1.479094246E1,-1.998006014E-1,-3.359430045E-1,3.771816623E-1,5.431795182E-1
1.480089246E1,-1.317417886E-1,-2.665213519E-1,4.632269490E-1,5.504259588E-1
1.481084346E1,1.371150143E-1,-1.859566605E-1,2.927525461E-1,3.729402901E-1
1.482079346E1,3.097202888E-1,-9.274970412E-2,2.013096946E-1,3.808605494E-1
1.483074346E1,4.179234530E-1,-1.552003062E-1,1.005159760E-1,4.570017604E-1
1.484069446E1,4.765469793E-1,-9.113704205E-2,8.858882546E-2,4.932047890E-1
1.485064446E1,4.788997527E-1,-5.345758438E-2,5.694720268E-2,4.852274419E-1
1.486059546E1,3.935336933E-1,-9.977104068E-3,1.436345136E-1,4.190455630E-1
1.487054546E1,1.450703705E-1,1.225985706E-2,8.921506226E-2,1.707484812E-1
1.488049546E1,-1.115733531E-1,6.907023489E-2,-2.483897209E-2,1.335525552E-1
1.489044646E1,-2.518880370E-1,1.012217349E-1,1.616404295E-2,2.719461326E-1
1.490039646E1,-3.378497084E-1,6.111275911E-2,-8.698025644E-2,3.541789940E-1
1.491034746E1,-3.767902643E-1,1.647955871E-1,-2.866889834E-1,5.013173267E-1
1.492029746E1,-1.856693429E-1,2.212872916E-1,-5.195467454E-1,5.944493175E-1
1.493024746E1,2.752649859E-3,2.540515798E-1,-6.990463257E-1,7.437846111E-1
1.494019846E1,9.988557301E-2,2.363614136E-1,-7.016465825E-1,7.470955576E-1
1.495014846E1,1.193790206E-1,1.708170497E-1,-6.188470852E-1,6.529942802E-1
1.496009946E1,1.936505730E-1,9.767481387E-2,-5.309996867E-1,5.735865942E-1
1.497004946E1,2.861228999E-1,-6.940644979E-3,-4.486580265E-1,5.321733844E-1
1.497999946E1,2.645905282E-1,-9.685561895E-2,-2.266702384E-1,3.616193517E-1
1.498995046E1,1.578735070E-1,-1.494501543E-1,5.962230384E-2,2.254200788E-1
1.499990046E1,-5.497705646E-2,-2.279858619E-1,1.455676031E-1,2.760252833E-1
1.500985046E1,-2.546622484E-1,-2.581569099E-1,1.630285585E-1,3.975879297E-1
1.501980146E1,-2.891031526E-1,-3.043206775E-1,4.966508031E-2,4.226799354E-1
1.502975146E1,-1.647749025E-1,-2.908241343E-1,9.704331458E-2,3.480615614E-1
1.503970246E1,2.191916496E-2,-2.119451952E-1,2.821129525E-1,3.535377399E-1
1.504965246E1,2.452790022E-1,-2.182227659E-1,3.867547238E-1,5.073087628E-1
1.505960246E1,4.374732531E-1,-1.220161879E-1,3.350817096E-1,5.644028255E-1
1.506955346E1,5.509720212E-1,-2.910510063E-2,1.164753664E-1,5.639005107E-1
1.507950346E1,5.662750617E-1,-1.069689631E-2,-8.759129047E-4,5.663767618E-1
1.508945446E1,4.537671773E-1,3.700059593E-2,5.688873053E-2,4.588137127E-1
1.509940446E1,1.660401669E-1,4.338049293E-2,2.517811060E-2,1.734506888E-1
1.510935546E1,-9.046738967E-2,-2.190834761E-2,-2.308480740E-2,9.590220342E-2
1.511930546E1,-3.978855566E-1,-5.804589450E-2,-2.477406800E-2,4.028597727E-1
1.512925546E1,-7.232146221E-1,-1.778839946E-2,-1.354332089E-1,7.360013389E-1
1.513920646E1,-6.261855602E-1,6.607002854E-2,-1.820097899E-1,6.554396754E-1
1.514915646E1,-2.969183218E-1,9.946873963E-2,-1.598640454E-1,3.515836074E-1
1.515910646E1,-2.009951144E-2,1.513949382E-1,-8.563773572E-2,1.750949441E-1
1.516905746E1,4.600940108E-2,5.813126385E-2,-2.106424356E-1,2.233077349E-1
1.517900746E1,-9.160101861E-3,5.295530856E-2,-3.365335733E-1,3.407976205E-1
1.518895846E1,4.142913088E-2,4.904469073E-2,-3.649048483E-1,3.705095180E-1
1.519890846E1,1.863118789E-1,1.518755794E-2,-2.228829968E-1,2.908944970E-1
1.520885846E1,3.436223721E-1,-9.148962915E-2,7.445727468E-2,3.633050682E-1
1.521880946E1,3.436700269E-1,-2.495872307E-1,3.057333648E-1,5.233314088E-1
1.522875946E1,2.327058075E-1,-1.913489628E-1,5.534050477E-1,6.300980600E-1
1.523871046E1,1.270011585E-1,-2.382132268E-1,3.292362481E-1,4.257597242E-1
1.524866046E1,1.712784681E-1,-1.875418407E-1,2.200254625E-1,3.360349086E-1
1.525861046E1,3.072111755E-1,-2.243553257E-1,2.467758894E-1,4.534449891E-1
1.526856146E1,3.026926665E-1,-2.163463944E-1,2.947189647E-1,4.746450051E-1
1.527851146E1,1.753430870E-1,-1.686939257E-1,3.950753117E-1,4.639906687E-1
1.528846246E1,1.087599653E-1,-1.515323478E-1,3.965505642E-1,4.382272612E-1
1.529841246E1,7.253105566E-2,-1.088856804E-1,3.756040835E-1,3.977376937E-1
1.530836346E1,-5.216666535E-2,-1.451904577E-1,2.183730394E-1,2.673731742E-1
1.531831346E1,-7.462421268E-2,-6.572855115E-3,1.549184704E-1,1.720805277E-1
1.532826346E1,2.701837555E-2,4.563810289E-2,6.207754970E-2,8.164833880E-2
1.533821446E1,8.559738994E-2,7.809248865E-2,-1.412687302E-3,1.158764240E-1
1.534816446E1,4.180671483E-2,6.486725628E-2,-6.265759349E-2,9.940591715E-2
1.535811446E1,-5.912865266E-2,6.984323680E-2,-1.086786890E-1,1.420750954E-1
1.536806546E1,-2.192205933E-1,7.471513689E-2,-1.581642598E-1,2.804566870E-1
1.537801546E1,-3.206345554E-1,1.000487834E-1,-1.260665542E-1,3.587604399E-1
1.538796646E1,-3.067846942E-1,5.932234168E-2,-1.512616217E-1,3.471542410E-1
1.539791646E1,-2.193403150E-1,4.949843466E-2,-1.615076977E-1,2.768483434E-1
1.540786746E1,-1.575241359E-1,-2.116984427E-2,-4.051179045E-1,4.351810339E-1
1.541781746E1,-1.195809688E-1,-9.683281481E-2,-5.691533536E-1,5.895860768E-1
1.542776746E1,-1.002695158E-2,-8.235920191E-2,-5.379999733E-1,5.443597608E-1
1.543771846E1,1.217613955E-1,-1.500834078E-1,-5.147607994E-1,5.498450212E-1
1.544766846E1,1.878327397E-1,-1.255122381E-1,-2.398434305E-1,3.294834308E-1
1.545761946E1,2.167969224E-1,-1.558072472E-1,2.400632858E-2,2.680542998E-1
1.546756946E1,2.146735060E-1,-1.926569849E-1,2.286694014E-1,3.680911887E-1
1.547751946E1,2.030966038E-1,-2.521535736E-1,4.687513983E-1,5.696995073E-1
1.548747046E1,1.687000653E-1,-2.876221991E-1,6.620866603E-1,7.413130156E-1
1.549742046E1,2.063321605E-1,-2.869439220E-1,8.263226688E-1,8.987318442E-1
1.550737146E1,2.008669142E-1,-3.325457722E-1,7.945500684E-1,8.844455998E-1
1.551732146E1,1.264245500E-1,-3.709608096E-1,7.170884943E-1,8.171970373E-1
1.552727146E1,3.155625343E-2,-4.072427827E-1,5.758197641E-1,7.059822108E-1
1.553722246E1,-2.247143447E-2,-3.946051955E-1,3.915599656E-1,5.563608832E-1
1.554717246E1,-6.122429475E-2,-3.530689144E-1,3.095504272E-1,4.735267042E-1
1.555712346E1,-1.206605110E-1,-2.572207707E-1,4.964321172E-1,5.719845547E-1
1.556707346E1,-1.489798920E-1,-2.308562601E-1,7.310305953E-1,7.809579709E-1
1.557702346E1,-1.696021445E-1,-2.210159808E-1,9.843495190E-1,1.023013649E0
1.558697446E1,-2.777357268E-1,-2.401124024E-1,1.199859177E0,1.254772148E0
1.559692446E1,-4.737365882E-1,-2.815370017E-1,1.368923816E0,1.475683520E0
1.560687546E1,-7.112110193E-1,-3.984134871E-1,1.388651737E0,1.610250933E0
1.561682546E1,-8.530448829E-1,-5.352137750E-1,1.323879206E0,1.663368723E0
1.562677546E1,-8.507586215E-1,-6.039255756E-1,1.159918016E0,1.560104528E0
1.563672646E1,-8.548376392E-1,-6.861444443E-1,9.945798075E-1,1.480111679E0
1.564667646E1,-9.092902735E-1,-8.565603751E-1,1.360626617E0,1.847108353E0
1.565662746E1,-1.110828594E0,-1.158923405E0,2.003119258E0,2.567008061E0
1.566657746E1,-1.504493265E0,-1.580228449E0,3.025301431E0,3.730022880E0
1.567652746E1,-1.400949893E0,-2.007664006E0,3.885049708E0,4.592056903E0
1.568647846E1,-7.463388982E-1,-2.417257369E0,4.202479259E0,4.905199982E0
1.569642846E1,1.349622157E-1,-1.858968727E0,3.879636941E0,4.304133167E0
1.570637946E1,1.141105769E0,-1.892309259E0,3.732022812E0,4.337159321E0
1.571632946E1,1.869301050E0,-1.902935111E0,3.935502409E0,4.754327256E0
1.572627988E1,2.530961740E0,-1.629783601E0,4.081127315E0,5.071248572E0
1.573623088E1,2.819863018E0,-1.793261372E0,4.028988862E0,5.234516696E0
1.574618088E1,2.982940108E0,-1.800487800E0,3.985339982E0,5.293639842E0
1.575613188E1,3.796930414E0,-1.436737631E0,3.320133247E0,5.244442808E0
1.576608188E1,4.625251662E0,-1.299607413E0,2.460529397E0,5.397790036E0
1.577603188E1,5.309900388E0,-6.669593643E-1,1.494895061E0,5.556490634E0
1.578598288E1,5.762056219E0,-1.033380980E0,8.008866960E-1,5.908518226E0
1.579593288E1,6.247879733E0,-1.956890001E0,7.038164842E-1,6.584890073E0
1.580588388E1,5.683218210E0,-2.468244798E0,1.143790226E0,6.300750565E0
1.581583388E1,4.884815996E0,-3.328899978E0,2.635869852E0,6.472311199E0
1.582578488E1,4.724592932E0,-4.876573469E0,4.245868523E0,8.008130036E0
1.583573487E1,5.086537335E0,-5.878387744E0,5.185107942E0,9.344177272E0
1.584568488E1,6.266842838E0,-6.572533518E0,4.781122059E0,1.026307187E1
1.585563588E1,7.804697392E0,-6.324615667E0,3.924127528E0,1.078484314E1
1.586558587E1,8.012647185E0,-4.714294231E0,-5.617537022E-1,9.313573548E0
1.587553688E1,7.175348707E0,-2.482077263E0,-7.576123300E0,1.072585572E1
1.588548688E1,7.178434868E0,-3.220980257E0,-1.182054990E1,1.419964932E1
1.589543687E1,5.184886917E0,-1.510411232E0,-1.135467065E1,1.257350150E1
1.590538788E1,2.882126509E0,-4.367837567E-1,-9.617383361E0,1.004945252E1
1.591533788E1,1.233102937E0,-1.496704774E0,-6.717951432E0,6.992248528E0
1.592528888E1,-5.300810891E-1,-1.680183238E0,-4.079283103E0,4.443484253E0
1.593523888E1,-1.637215705E0,-1.905212456E0,-2.864991828E0,3.810313365E0
1.594518888E1,-1.475392258E0,-3.006240678E0,-4.288745570E0,5.441286970E0
1.595513988E1,-1.715112897E0,-2.129285068E0,-4.655306642E0,5.398828307E0
1.596508988E1,-1.049844182E0,-1.953439559E0,-5.212955307E0,5.665068574E0
1.597504087E1,-6.419394940E-1,-1.321328212E0,-5.125734730E0,5.332086934E0
1.598499088E1,-2.099138725E-1,-1.257152973E0,-5.305743603E0,5.456685130E0
1.599494188E1,-2.156733799E-1,-1.076641094E0,-5.768325019E0,5.871902977E0
