"Time (s)","Linear Acceleration x (m/s^2)","Linear Acceleration y (m/s^2)","Linear Acceleration z (m/s^2)","Absolute acceleration (m/s^2)"
1.862791658E-3,-5.201878561E-2,1.547542025E-2,7.025137246E-2,8.877329565E-2
1.181379167E-2,4.503506309E-2,-2.236577803E-2,-1.249386263E-1,1.346775604E-1
2.176379165E-2,2.184885904E-2,-1.180287317E-2,-1.169940144E-1,1.196005011E-1
3.171379166E-2,-3.002993372E-2,1.198996580E-2,1.147217864E-1,1.191916292E-1
4.166379166E-2,-8.365013008E-3,9.198088206E-3,3.986982465E-2,4.176339530E-2
5.161379167E-2,3.681485775E-2,-1.169289527E-2,-1.015854317E-1,1.086814496E-1
6.156479166E-2,2.954637812E-2,-1.397398888E-2,-1.850409865E-2,3.755878715E-2
7.151479166E-2,4.008768825E-5,1.783349953E-2,2.729889572E-2,3.260774479E-2
8.146479167E-2,6.870103804E-3,2.214016230E-2,1.127869427E-2,2.577972182E-2
9.141479168E-2,2.581050068E-2,2.130186800E-2,-5.877445757E-2,6.763422498E-2
1.013647917E-1,1.514476591E-2,1.772622825E-2,-5.487904251E-2,5.962627281E-2
1.113147917E-1,-1.306942462E-2,2.520521107E-2,3.837703049E-2,4.773791988E-2
1.212657917E-1,-1.002980438E-2,1.621484064E-2,5.892823935E-3,1.995603685E-2
1.312157917E-1,9.609051535E-3,-3.212552784E-3,-4.440141678E-2,4.554272915E-2
1.411657917E-1,-6.124729989E-5,-5.280428594E-3,5.296407938E-3,7.479212152E-3
1.511157917E-1,-1.086512025E-2,2.776953491E-3,7.988466024E-3,1.376872900E-2
1.610657917E-1,-6.030066765E-3,-1.343292044E-2,-1.892743707E-3,1.484545504E-2
1.710167917E-1,2.286318422E-3,-1.034409108E-2,-3.497453570E-2,3.654374940E-2
1.809667917E-1,-4.427406625E-3,5.126449250E-3,-1.446601152E-2,1.597334970E-2
1.909167917E-1,-1.208218850E-2,1.034466096E-4,1.681834638E-2,2.070861548E-2
2.008667917E-1,-7.373549072E-3,-1.470075211E-2,-2.539445758E-2,3.025491388E-2
2.108167917E-1,6.430886546E-4,-1.257739627E-2,-3.003363848E-2,3.256722125E-2
2.207667917E-1,-1.480334562E-3,-8.873254820E-3,-2.340055704E-3,9.295262353E-3
2.307177917E-1,-6.190721299E-3,-6.282041789E-3,-1.192071855E-2,1.482877642E-2
2.406677917E-1,9.238303802E-4,-1.017082849E-2,-1.237036943E-2,1.604136075E-2
2.506177917E-1,-7.356528193E-4,2.062613316E-3,-2.030328691E-2,2.042104351E-2
2.605642917E-1,-2.046961735E-3,1.265873310E-2,-1.292819381E-3,1.288817124E-2
2.705142917E-1,-1.003273484E-2,1.645479004E-2,1.400408149E-3,1.932296630E-2
2.804652917E-1,-5.054506799E-3,1.638386857E-2,-1.850877643E-2,2.523002166E-2
2.904152917E-1,-4.802322784E-3,2.302440749E-2,-1.027531207E-2,2.566647000E-2
3.003652917E-1,-1.980552441E-3,1.695472812E-2,-1.443677545E-3,1.713095439E-2
3.103152917E-1,7.034387724E-3,2.235347147E-2,-3.090253472E-3,2.363704643E-2
3.202652917E-1,1.034048340E-2,7.100468113E-3,-2.120200396E-2,2.463467507E-2
3.302152917E-1,6.341650269E-3,8.459179447E-3,-1.551383257E-2,1.877373820E-2
3.401662917E-1,1.091862684E-2,2.404860669E-2,-1.892743707E-3,2.647894210E-2
3.501162917E-1,1.012401079E-2,6.770502424E-3,-9.227491021E-3,1.528011414E-2
3.600662917E-1,2.187681832E-2,1.078021000E-3,-2.509449542E-2,3.330902294E-2
3.700162917E-1,9.203277610E-3,-8.390188012E-3,3.795427680E-3,1.301924902E-2
3.799662917E-1,3.115213774E-3,-7.964773381E-3,-4.287178516E-3,9.566716861E-3
3.899162917E-1,1.117799882E-2,-1.772823709E-2,-1.192130327E-2,2.411131518E-2
3.998672916E-1,5.485935383E-3,-2.790403457E-2,-6.980406046E-3,2.928236160E-2
4.098172917E-1,-4.539401361E-3,-2.949980139E-2,-6.934797764E-4,2.985507262E-2
4.197672917E-1,-1.723504501E-2,-2.872761718E-2,-3.088499308E-3,3.364315076E-2
4.297172917E-1,-6.764705458E-3,-2.268385742E-2,-6.680443883E-3,2.459566950E-2
4.396672917E-1,-1.209945606E-2,-1.121983154E-2,-2.479277909E-2,2.978192995E-2
4.496182917E-1,-1.075676175E-2,-2.704998477E-3,-6.081104279E-3,1.264929917E-2
4.595682917E-1,-8.017562774E-3,2.140987704E-3,-7.428887486E-3,1.113793116E-2
4.695182917E-1,-1.039106866E-2,2.158932261E-2,-7.428887486E-3,2.508508577E-2
4.794682917E-1,-6.186233105E-3,3.349490007E-2,-1.431456864E-2,3.694705246E-2
4.894182917E-1,3.305563484E-3,3.720735439E-2,-3.986046910E-3,3.756597583E-2
4.993692917E-1,1.236049997E-2,4.217823230E-2,-9.922724962E-4,4.396327836E-2
5.093192917E-1,2.216825863E-2,2.785056224E-2,-8.925774693E-3,3.669816019E-2
5.192692917E-1,1.326381713E-2,1.713021425E-2,-1.072203934E-2,2.417302656E-2
5.292192917E-1,1.086541033E-2,7.571157552E-3,-4.585386515E-3,1.401446887E-2
5.391692917E-1,9.567657360E-3,-1.091289383E-2,-1.087231278E-2,1.813390483E-2
5.491192917E-1,1.050386054E-3,-1.634826907E-2,-1.147106767E-2,1.999886512E-2
5.590702917E-1,-1.781824767E-4,-1.915556870E-2,-8.327604532E-3,2.088819184E-2
5.690202917E-1,-2.581993388E-3,-5.723430554E-3,-1.591027379E-3,6.477323157E-3
5.789702917E-1,-3.996128789E-3,-2.285434944E-2,-1.596055984E-2,2.816078487E-2
5.889202917E-1,-1.272159980E-3,-9.857346924E-3,-2.045122147E-2,2.273847266E-2
5.988702917E-1,-6.501925648E-3,-7.926165769E-3,-6.081689000E-3,1.191998666E-2
6.088212917E-1,-1.024828697E-2,3.662146566E-3,-2.584060013E-2,2.803881806E-2
6.187712917E-1,-8.677418777E-3,2.432302383E-3,-1.985246658E-2,2.180215863E-2
6.287212917E-1,1.753410953E-3,6.462921750E-3,-4.733905792E-3,8.200833590E-3
6.386712917E-1,-2.492199799E-3,8.358699842E-3,-7.728264928E-3,1.165354031E-2
6.486212916E-1,4.630533415E-3,2.812870013E-2,-1.102083206E-2,3.056344794E-2
6.585712917E-1,5.550177097E-3,2.363007853E-2,-1.206865311E-2,2.710788566E-2
6.685222917E-1,1.712216862E-2,2.888643304E-2,-1.581087112E-2,3.711574218E-2
6.784722916E-1,1.212452371E-2,2.612915566E-2,-1.296678543E-2,3.158914964E-2
6.884222917E-1,1.666806152E-2,2.253463237E-2,-1.236803055E-2,3.063661389E-2
6.983722917E-1,3.352788887E-3,1.476994911E-2,-5.631453395E-3,1.615877029E-2
7.083222917E-1,-5.771156168E-3,4.506867088E-4,-8.476123810E-3,1.026421146E-2
7.182732917E-1,-9.353306657E-4,2.789166406E-3,-1.072145462E-2,1.111772827E-2
7.282232917E-1,-4.597446397E-3,-1.612382850E-2,-1.146931350E-2,2.031402252E-2
7.381732917E-1,-1.917291506E-2,-1.822577690E-2,-1.086997390E-2,2.859957951E-2
7.481232917E-1,-2.176197992E-2,-8.620615132E-3,-1.057059646E-2,2.568338538E-2
7.580732917E-1,-7.521524741E-3,-1.012874681E-2,-1.715690017E-2,2.129610457E-2
7.680232917E-1,-8.936920948E-4,4.558709735E-3,-1.071970046E-2,1.168300038E-2
7.779742917E-1,1.929375599E-3,5.396467274E-3,2.752284408E-3,6.357626814E-3
7.879242917E-1,7.502292884E-3,-3.842726173E-3,-1.176752150E-2,1.447499586E-2
7.978742917E-1,5.917128709E-3,2.712663811E-3,-4.432774186E-3,7.875305968E-3
8.078242917E-1,1.487816029E-2,1.042601377E-2,-8.174992204E-3,1.992214632E-2
8.177742917E-1,5.327236012E-3,1.168934126E-2,-9.671879411E-3,1.607996872E-2
8.277252917E-1,1.384728931E-2,8.484461802E-3,-1.341409743E-2,2.106351165E-2
8.376752917E-1,1.446734085E-2,1.082483271E-2,-1.191779494E-2,2.164520249E-2
8.476252917E-1,1.367919785E-2,1.393359170E-2,-8.474954367E-3,2.128591748E-2
8.575752917E-1,2.566774639E-3,2.058784760E-2,-5.780557394E-3,2.153747071E-2
8.675252917E-1,-1.946444444E-3,1.748646158E-2,-1.580970168E-2,2.365399864E-2
8.774752917E-1,-6.068217563E-3,1.072509999E-2,-1.760596633E-2,2.149002291E-2
8.874262917E-1,-5.146385743E-3,-1.800043640E-3,-1.161783278E-2,1.283352959E-2
8.973762917E-1,-7.891541573E-3,-1.702343975E-2,-9.072539806E-3,2.084190270E-2
9.073262917E-1,-1.741681347E-2,-4.550710927E-3,2.752869129E-3,1.821078389E-2
9.172762917E-1,-1.222630637E-2,-1.201141435E-2,-1.191604078E-2,2.087459389E-2
9.272262916E-1,1.308031278E-3,-1.395693260E-2,-2.284331739E-2,2.680156829E-2
9.371772917E-1,2.291635734E-3,-1.563184697E-2,-1.266448438E-2,2.024834311E-2
9.471272917E-1,3.842559436E-3,-4.983390039E-3,-7.425379157E-3,9.733226337E-3
9.570772917E-1,1.397172766E-2,5.695510099E-3,-1.056884229E-2,1.842141244E-2
9.670272917E-1,1.385403188E-2,1.031444616E-2,-1.356261671E-2,2.196056855E-2
9.769772917E-1,1.570603009E-2,1.487985050E-2,-2.934132814E-3,2.183342546E-2
9.869282917E-1,5.803861746E-3,1.327058255E-2,-2.185689211E-3,1.464822206E-2
9.968782917E-1,1.175673613E-2,1.492113618E-2,-7.575067878E-3,2.045098537E-2
1.006828292E0,4.718152571E-3,1.842209945E-2,-8.772577643E-3,2.094260801E-2
1.016778292E0,-7.417375781E-4,1.912180217E-2,-8.174407482E-3,2.080899879E-2
1.026728292E0,9.190868265E-3,2.449410971E-2,-2.089736402E-2,3.348332858E-2
1.036678292E0,-6.380132257E-3,1.787218595E-2,-6.376973391E-3,2.001966303E-2
1.046629292E0,-2.185940458E-3,1.430185323E-2,-1.565767407E-2,2.131863267E-2
1.056579292E0,-7.373076270E-3,3.020696731E-3,-9.819813967E-3,1.264577434E-2
1.066529292E0,-7.259731649E-3,9.121199604E-5,-1.206514478E-2,1.408118396E-2
1.076479292E0,3.387205233E-4,-7.558696816E-3,-9.519851804E-3,1.216043616E-2
1.086429292E0,-2.786609391E-3,-2.288354441E-2,-1.131611645E-2,2.568027040E-2
1.096380292E0,2.878280485E-3,-1.151551564E-2,-1.745335400E-2,2.110713540E-2
1.106330292E0,3.027293121E-3,-1.310967105E-2,-1.505833447E-2,2.019359839E-2
1.116280292E0,-3.739728383E-4,-1.241746236E-2,-9.220474362E-3,1.547095261E-2
1.126230292E0,1.022690352E-2,-8.302083492E-3,-2.035415769E-3,1.332880577E-2
1.136180292E0,1.098928451E-2,1.981198832E-3,-1.116584301E-2,1.579131321E-2
1.146130292E0,1.376233567E-2,1.435654183E-2,-1.221424878E-2,2.333880994E-2
1.156081292E0,6.214799951E-3,1.653896710E-2,-5.777049065E-3,1.858858432E-2
1.166031292E0,1.938562123E-3,2.387645187E-2,-1.146522045E-2,2.655737670E-2
1.175981292E0,-5.612582420E-3,2.701441954E-2,-2.329062939E-2,3.610724805E-2
1.185931292E0,-4.777177472E-3,1.419415368E-2,-1.371055126E-2,2.030454726E-2
1.195881292E0,9.686757834E-4,8.991402837E-3,-9.070200920E-3,1.280828648E-2
1.205832292E0,-8.294218301E-3,1.223654928E-2,-7.573313713E-3,1.660970428E-2
1.215782292E0,-2.353415221E-3,6.150697565E-3,-1.161432445E-2,1.335148592E-2
1.225732292E0,-2.567012182E-3,6.117672217E-4,-1.415903270E-2,1.440284756E-2
1.235682292E0,5.143574055E-3,-1.906984875E-3,-3.830510974E-3,6.690721911E-3
1.245632292E0,9.965644896E-3,-1.290127377E-2,-1.879938304E-2,2.488320209E-2
1.255583292E0,1.246735099E-2,-1.172840911E-2,-4.878332019E-3,1.779855455E-2
1.265532250E0,9.339522303E-3,-1.410072957E-2,-3.531133533E-3,1.727790946E-2
1.275482250E0,5.345197928E-3,-6.601443660E-3,-8.920512199E-3,1.231770016E-2
1.285432250E0,9.214076686E-3,-7.448111350E-3,-7.124247551E-3,1.382492224E-2
1.295382250E0,9.790283244E-3,2.408465843E-3,-1.445841014E-2,1.762657022E-2
1.305333250E0,1.160027286E-2,-1.299352959E-3,-1.206339061E-2,1.678630518E-2
1.315283250E0,4.667599280E-3,1.106607832E-2,-1.221366405E-2,1.712945306E-2
1.325233250E0,7.997038134E-3,2.055806106E-2,-5.178294182E-3,2.265835881E-2
1.335183250E0,7.383069070E-3,2.526617058E-2,-1.296269238E-2,2.934144643E-2
1.345133250E0,2.261348984E-3,1.638071541E-2,-3.382614255E-3,1.687849566E-2
1.355083250E0,-4.791347834E-3,1.885412988E-2,-1.281358838E-2,2.329427558E-2
1.365034250E0,2.232014691E-4,1.499457584E-2,-1.266389966E-2,1.962807882E-2
1.374984250E0,-6.063222305E-3,3.024872008E-3,-1.206572950E-2,1.383814813E-2
1.384934250E0,4.609010636E-3,8.505200003E-3,-4.281916022E-3,1.057904584E-2
1.394884250E0,-1.368049749E-3,-7.870646913E-3,-8.623473644E-3,1.175512402E-2
1.404834250E0,2.176749366E-3,-9.336565576E-3,-1.535946608E-2,1.810588006E-2
1.414785250E0,1.950242850E-3,-1.127195855E-2,-1.266565382E-2,1.706690609E-2
1.424735250E0,4.477073697E-3,-9.550483448E-3,-2.059915602E-2,2.314262629E-2
1.434685250E0,8.259020804E-3,-1.545505549E-2,-1.670666456E-2,2.421121239E-2
1.444635250E0,5.661322160E-3,-8.665870526E-4,-1.416195631E-2,1.527620857E-2
1.454585250E0,1.467645647E-2,-8.141782988E-3,-4.282500744E-3,1.732128221E-2
1.464536250E0,5.743546346E-3,-5.318530285E-3,-8.024718761E-3,1.121031669E-2
1.474486250E0,-1.351147641E-3,7.144220589E-3,-1.715573072E-2,1.863288986E-2
1.484436250E0,-1.224507913E-2,5.252617775E-3,-1.056942701E-2,1.700719683E-2
1.494386250E0,-7.887231535E-4,1.645065245E-2,-7.276275158E-3,1.800528340E-2
1.504336250E0,-3.384318170E-3,1.604053651E-2,-8.174407482E-3,1.831866149E-2
1.514287250E0,-6.454286829E-3,2.570289592E-2,-1.266448438E-2,2.937151412E-2
1.524237250E0,-1.989412343E-3,1.737185729E-2,-1.401168287E-2,2.240683922E-2
1.534187250E0,-2.008020650E-3,1.493695450E-2,-1.820296705E-2,2.363245154E-2
1.544137250E0,4.309370527E-3,1.357412727E-2,-1.910109937E-2,2.382602784E-2
1.554087250E0,-2.337757931E-3,1.449576152E-3,-1.056942701E-2,1.092150038E-2
1.564038250E0,3.262161613E-3,8.128737530E-3,1.705048084E-3,8.923298784E-3
1.573988250E0,8.055462325E-3,-5.523797247E-3,-1.356320143E-2,1.671416292E-2
1.583938250E0,6.668363444E-3,-6.808905612E-3,-1.266565382E-2,1.585077454E-2
1.593888250E0,1.221974196E-2,-6.166987543E-3,-1.386374831E-2,1.948223155E-2
1.603838250E0,3.834190608E-3,-1.238418577E-3,-2.254569411E-2,2.290290421E-2
1.613788250E0,3.997375891E-3,2.841165512E-3,6.643606424E-3,8.257647474E-3
1.623739250E0,4.326619813E-3,1.390307997E-3,-2.419227004E-2,2.461541235E-2
1.633689250E0,4.825848690E-4,7.516929195E-3,-6.828378439E-3,1.016680209E-2
1.643639250E0,-2.187591840E-3,-1.275192081E-3,-1.738961935E-3,3.071752190E-3
1.653589250E0,-1.025280485E-2,5.074058427E-4,-2.269538283E-2,2.490899175E-2
1.663540250E0,5.756631775E-3,9.616435929E-3,-8.408296108E-4,1.123929018E-2
1.673490250E0,-1.401898275E-2,9.076399882E-3,-1.760538161E-2,2.426648664E-2
1.683440250E0,-3.359483492E-3,1.246189092E-2,-5.032113791E-3,1.385305107E-2
1.693390250E0,5.015485771E-3,1.073427967E-2,6.643606424E-3,1.358371686E-2
1.703340250E0,5.091696004E-3,1.338030121E-2,-3.871324539E-2,4.127557628E-2
1.713290250E0,9.834363484E-3,6.919698928E-3,8.139324188E-3,1.452052122E-2
1.723241250E0,1.036788994E-3,1.002691732E-2,-1.775682449E-2,2.041859002E-2
1.733191250E0,1.993169636E-3,7.698130069E-3,-8.476123810E-3,1.162233224E-2
1.743141250E0,7.122054845E-3,6.122601237E-3,5.730271339E-5,9.392187963E-3
1.753091250E0,1.093270127E-2,-1.176168114E-2,-3.092826247E-2,3.484850814E-2
1.763041250E0,3.154981693E-3,2.225877398E-3,2.069914341E-4,3.866689169E-3
1.772992250E0,3.522853784E-3,-7.165757072E-3,-2.224631667E-2,2.363592982E-2
1.782942250E0,-1.215805155E-3,-2.004134307E-3,-1.925254226E-2,1.939471887E-2
1.792892250E0,2.381678286E-3,1.658324035E-3,7.841700912E-3,8.361501256E-3
1.802842250E0,2.494725978E-3,3.649985043E-3,-2.209662795E-2,2.253457378E-2
1.812792250E0,2.015868709E-3,-2.207950886E-3,-8.774331808E-3,9.269718035E-3
1.822743250E0,3.039960566E-3,1.903361999E-2,-9.905183315E-4,1.930028955E-2
1.832693250E0,-6.126077590E-4,1.007609789E-2,-2.538977981E-2,2.732295657E-2
1.842643250E0,-4.007578825E-3,1.099233031E-2,-8.474954367E-3,1.444703656E-2
1.852593250E0,-4.844064137E-3,1.224413353E-2,-1.775565505E-2,2.210536246E-2
1.862543250E0,-5.298390510E-3,6.849448972E-3,-1.416312575E-2,1.660066337E-2
1.872494250E0,1.042352985E-3,9.863999274E-3,1.554189920E-3,1.003994461E-2
1.882444250E0,1.756366538E-3,1.731794756E-2,-2.808476150E-2,3.304163979E-2
1.892394250E0,7.729244793E-3,1.263046204E-2,-8.624643087E-3,1.713634339E-2
1.902344250E0,1.259037549E-2,-3.158054907E-3,-9.522775412E-3,1.609888559E-2
1.912294250E0,5.080821554E-3,-2.729817167E-3,-2.823386550E-2,2.881697088E-2
1.922245250E0,5.278864007E-3,-1.207611287E-2,3.500143290E-3,1.363634520E-2
1.932195250E0,-1.424479948E-3,-8.698268897E-3,-1.506125808E-2,1.745080284E-2
1.942145250E0,-9.873982938E-4,-5.884091940E-3,-1.970160842E-2,2.058520993E-2
1.952095250E0,-6.896484797E-3,-1.254560089E-3,-2.787367702E-3,7.543529829E-3
1.962045250E0,-3.526088025E-3,-5.608536192E-3,-1.715806961E-2,1.839261612E-2
1.971996250E0,3.611768007E-3,2.418041801E-3,6.793295145E-3,8.064778559E-3
1.981946250E0,-6.408089257E-3,1.288699835E-2,-1.775507033E-2,2.285565262E-2
1.991896250E0,-5.561257114E-3,8.822321232E-3,-2.538977981E-2,2.744816663E-2
2.001846250E0,-4.731564622E-3,1.816124054E-2,-1.281534255E-2,2.272556636E-2
2.011796250E0,5.062087623E-3,2.041041201E-2,-9.222813249E-3,2.296235906E-2
2.021747250E0,-4.568335942E-3,1.453275772E-2,2.452906966E-3,1.543008402E-2
2.031697250E0,8.795342955E-3,8.775919236E-3,-1.386374831E-2,1.861661444E-2
2.041647250E0,1.297889099E-2,1.770538042E-2,-2.074942946E-2,3.020713376E-2
2.051597250E0,1.503723196E-2,8.169420218E-3,-5.331491232E-3,1.792435691E-2
2.061547250E0,-1.074055857E-3,1.408864570E-2,-1.401343703E-2,1.990025003E-2
2.071498250E0,8.067782591E-3,-9.388721141E-4,-1.116993606E-2,1.381079536E-2
2.081448250E0,1.675071968E-3,2.197231752E-3,-1.140791774E-3,2.989163652E-3
2.091398250E0,-4.607130848E-3,2.864541812E-4,-1.566059768E-2,1.632672749E-2
2.101348250E0,-2.842820319E-4,5.299553100E-4,-9.523944855E-3,9.542913313E-3
2.111298250E0,-9.229971520E-3,-4.348076354E-3,-1.491332352E-2,1.806945934E-2
2.121249250E0,8.369745598E-3,-2.006264201E-3,-1.176927567E-2,1.458058940E-2
2.131199250E0,5.543605832E-3,8.282215521E-4,-4.733905792E-3,7.336714565E-3
2.141149250E0,-2.695941003E-3,3.678864806E-3,-1.476246536E-2,1.545097174E-2
2.151099250E0,-3.765159203E-3,7.378776163E-3,3.799520731E-3,9.113677593E-3
2.161049250E0,5.213041718E-3,2.655434873E-2,-9.905183315E-4,2.707933469E-2
2.171000250E0,9.536573470E-3,1.685943906E-2,-1.700662673E-2,2.577619583E-2
2.180950250E0,5.999770879E-3,2.338277785E-2,-2.186858654E-3,2.423909861E-2
2.190900250E0,7.971579905E-3,1.471368336E-2,-7.875614762E-3,1.849496883E-2
2.200850250E0,1.034961967E-2,1.051369117E-2,-1.042032301E-2,1.806198940E-2
2.210800250E0,9.399723499E-3,9.073844010E-3,-9.821568131E-3,1.634480491E-2
2.220751250E0,9.839826976E-3,1.986282027E-3,-1.685635328E-2,1.961897442E-2
2.230701250E0,-3.882345627E-4,-1.437569945E-3,-3.982538581E-3,4.251816902E-3
2.240651250E0,6.305699029E-3,-8.400572530E-3,-4.281916022E-3,1.134311526E-2
2.250601250E0,5.720860977E-4,-9.272457480E-3,-8.473784924E-3,1.257421096E-2
2.260551250E0,-8.292767918E-5,-2.679373511E-3,-6.527246833E-3,7.056264637E-3
2.270501875E0,9.793419270E-3,-3.608603430E-3,-2.186858654E-3,1.066374374E-2
2.280452875E0,6.116671795E-3,1.317027082E-3,-5.779972672E-3,8.517999664E-3
2.290402875E0,-2.961139642E-3,9.763775485E-3,-6.378727555E-3,1.203278126E-2
2.300352875E0,-5.198633813E-3,-7.874600636E-4,-5.181217790E-3,7.381795490E-3
2.310302875E0,6.868943498E-3,2.927813939E-3,5.730271339E-5,7.467112081E-3
2.320252875E0,-2.692889487E-3,4.181005871E-3,-1.985129714E-2,2.046476147E-2
2.330203875E0,9.901757212E-4,5.645104131E-3,-1.386374831E-2,1.500170543E-2
2.340153875E0,5.088493740E-3,1.660138270E-2,-1.790592849E-2,2.494235256E-2
2.350103875E0,-4.287317845E-3,1.624305574E-2,-6.679274440E-3,1.807845848E-2
2.360053875E0,1.035772126E-2,1.778494709E-2,-7.278029323E-3,2.183017278E-2
2.370003875E0,1.073626452E-3,7.014355300E-3,-1.296561599E-2,1.478042800E-2
2.379954875E0,6.201926940E-3,8.051192259E-3,-7.876199484E-3,1.285768692E-2
2.389904875E0,8.714612550E-3,5.839987717E-3,-1.461219192E-2,1.798794266E-2
2.399854875E0,-2.398230932E-3,1.554773500E-3,-1.206748366E-2,1.240133034E-2
2.409804875E0,-5.028196613E-3,4.936441008E-3,-1.730658889E-2,1.868607048E-2
2.419754875E0,-7.810030016E-4,-2.869543922E-3,-1.820472121E-2,1.844603270E-2
2.429705875E0,1.210624888E-3,-3.399370182E-3,-1.027121902E-2,1.088665561E-2
2.439655875E0,-6.243615760E-3,3.147835984E-3,-2.643760085E-2,2.734663321E-2
2.449605875E0,-3.167996316E-3,2.456500948E-3,-1.057059646E-2,1.130522477E-2
2.459555875E0,2.577237957E-3,1.118178352E-3,-8.325265646E-3,8.786496821E-3
2.469505875E0,4.352861478E-3,3.349955500E-3,-1.266623855E-2,1.380591192E-2
2.479456875E0,3.173592284E-3,1.694591618E-3,-1.985129714E-2,2.017467043E-2
2.489406875E0,4.858647916E-3,6.319022002E-3,-1.086938918E-2,1.347887680E-2
2.499356875E0,1.128001446E-2,6.570911373E-4,-1.887481213E-3,1.145570078E-2
2.509306875E0,9.037707760E-3,7.296096305E-3,-1.056942701E-2,1.570432967E-2
2.519256875E0,6.844403464E-3,1.379144955E-2,-1.790417433E-2,2.361375442E-2
2.529207875E0,5.027785480E-3,4.489903310E-3,-8.024134040E-3,1.047972259E-2
2.539157875E0,5.309621275E-3,1.249670926E-2,-9.970672131E-3,1.684559655E-2
2.549107875E0,1.260216585E-3,4.742774831E-3,-3.983123302E-3,6.320390034E-3
2.559057875E0,-7.951194593E-3,1.661317878E-2,-2.374203444E-2,3.004835110E-2
2.569007875E0,-5.201637363E-3,1.233376952E-2,-1.341351271E-2,1.894996636E-2
2.578958875E0,4.631657177E-3,4.089684240E-3,-1.221600294E-2,1.368972218E-2
2.588908875E0,-8.853049949E-5,-2.393709618E-3,-1.266506910E-2,1.288959498E-2
2.598858875E0,-4.837983947E-3,1.160984082E-3,-5.929661393E-3,7.740468781E-3
2.608808875E0,2.330494593E-3,-1.827502713E-3,-9.073124528E-3,9.544242239E-3
2.618758875E0,-3.385099322E-3,-7.656376152E-3,-9.223397970E-3,1.245592483E-2
2.628709875E0,3.032580740E-4,-2.442348859E-3,4.997615218E-3,5.570744230E-3
2.638659875E0,7.946528241E-3,-2.155976904E-3,-2.119849563E-2,2.274141078E-2
2.648609875E0,7.590492193E-3,-5.077427428E-3,-1.865378737E-2,2.076919894E-2
2.658559875E0,7.596067605E-3,4.123407371E-3,-5.630868673E-3,1.031549385E-2
2.668509875E0,8.052255493E-4,-2.350876479E-3,-8.774331808E-3,9.119424712E-3
2.678460875E0,7.698727353E-4,7.348337523E-3,-1.356437087E-2,1.544612979E-2
2.688410875E0,-2.474633027E-3,7.885711488E-3,-7.576822042E-3,1.121233636E-2
2.698360875E0,5.699657968E-3,7.858640706E-3,-1.536063552E-2,1.817122611E-2
2.708310875E0,-4.632426908E-3,1.400559126E-2,-9.522775412E-3,1.755845144E-2
2.718260875E0,4.925075483E-3,2.051981433E-2,-1.476188064E-2,2.575329627E-2
2.728211875E0,-4.882475319E-3,1.363449406E-2,-9.522190690E-3,1.733234286E-2
2.738161875E0,-4.579703752E-3,3.680199845E-3,1.405085921E-3,6.040846282E-3
2.748111875E0,-4.560145272E-3,7.784949801E-3,-1.416254103E-2,1.679219869E-2
2.758061875E0,-1.077194167E-3,-2.003251514E-3,-1.625818312E-2,1.641651249E-2
2.768011875E0,3.832804179E-4,-1.265067148E-2,-1.700721145E-2,2.119980269E-2
2.777962875E0,7.681946300E-3,-1.255402911E-3,-1.775565505E-2,1.938689304E-2
2.787912875E0,3.075384186E-3,-1.313670643E-2,-2.000098586E-2,2.412613685E-2
2.797862875E0,-4.013318690E-3,-9.678001857E-3,-1.715690017E-2,2.010297665E-2
2.807812875E0,8.539225773E-3,-6.426682718E-3,2.602595687E-3,1.099973326E-2
2.817762875E0,2.794710982E-3,5.943462878E-3,-3.084990978E-3,7.256192513E-3
2.827713875E0,4.517867162E-3,4.921368440E-4,-1.131787062E-2,1.219620915E-2
2.837663875E0,8.668063232E-4,8.972874472E-3,-7.575652599E-3,1.177515783E-2
2.847613875E0,-1.270953992E-3,1.064123014E-2,-1.266565382E-2,1.659125944E-2
2.857563875E0,2.906120997E-3,8.179569477E-3,-2.059915602E-2,2.235343653E-2
2.867513875E0,-4.267361937E-3,1.439794171E-2,-1.595880568E-2,2.191334256E-2
2.877464875E0,-3.318098453E-3,1.672812567E-2,-1.580911696E-2,2.325442205E-2
2.887414875E0,1.551928692E-3,3.567043659E-3,-1.161841750E-2,1.225234297E-2
2.897364875E0,5.351337504E-3,1.358730520E-2,-1.625876784E-2,2.185404328E-2
2.907314875E0,-3.095728385E-3,8.768100869E-3,-8.924605250E-3,1.288843303E-2
2.917264875E0,3.339847354E-3,-3.826715994E-3,-9.223982692E-3,1.052996640E-2
2.927215875E0,6.625580555E-3,-2.164269215E-4,2.002671361E-3,6.925016309E-3
2.937165875E0,-6.719524297E-4,1.635280066E-3,-1.140207052E-3,2.103742638E-3
2.947115875E0,7.758460315E-3,-9.710250621E-3,-1.191779494E-2,1.721965476E-2
2.957065875E0,7.877939944E-3,2.677967667E-4,-3.384953141E-3,8.578552363E-3
2.967015875E0,2.662605022E-3,3.772350593E-3,-2.786198258E-3,5.392865215E-3
2.976966875E0,2.848311220E-3,6.296543340E-3,-1.027063429E-2,1.237922710E-2
2.986916875E0,5.335058947E-3,7.867120311E-3,-1.341409743E-2,1.644057316E-2
2.996866875E0,-3.228279739E-4,9.839371304E-3,-1.086997390E-2,1.466539390E-2
3.006816875E0,8.048189851E-4,4.091375592E-3,-1.176810622E-2,1.248500748E-2
3.016766875E0,-2.329891599E-3,1.221905788E-2,-6.529585719E-3,1.404881703E-2
3.026717875E0,2.963556186E-4,1.710457216E-2,-1.221834183E-2,2.102241880E-2
3.036667875E0,9.090567960E-3,1.832508592E-2,-1.850526810E-2,2.758427355E-2
3.046617875E0,-1.694561925E-3,9.447534765E-3,-7.877368927E-3,1.241693982E-2
3.056567875E0,5.460308134E-3,1.429042489E-2,-1.386491776E-2,2.064623823E-2
3.066517875E0,3.007442281E-3,-1.343249332E-3,-5.332660675E-3,6.267878247E-3
3.076468875E0,-4.575067093E-3,-9.617329000E-3,-1.251771927E-2,1.643525332E-2
3.086418875E0,-2.817535680E-4,3.171835835E-3,-9.823322296E-3,1.032654776E-2
3.096368875E0,1.056980845E-2,-9.267025965E-4,-6.381066442E-3,1.238134231E-2
3.106318875E0,6.322032404E-3,-5.946177493E-3,-7.728264928E-3,1.162115310E-2
3.116268875E0,1.671917669E-3,-4.287185369E-4,-1.506301224E-2,1.516157796E-2
3.126219875E0,3.503594517E-3,1.673400030E-4,-5.632622838E-3,6.635481690E-3
3.136169875E0,4.303610106E-3,-9.470914492E-3,-1.326616287E-2,1.685853963E-2
3.146119875E0,5.356995142E-3,1.585347243E-2,-1.715806961E-2,2.396725553E-2
3.156069875E0,3.075048428E-3,1.047857247E-2,-6.230792999E-3,1.257295452E-2
3.166019875E0,-2.368225122E-3,5.813483385E-3,-1.290480494E-3,6.408620695E-3
3.175970875E0,-7.477037937E-3,5.550420351E-3,1.702709198E-3,9.466386903E-3
3.185920875E0,-2.106811185E-3,1.110242013E-2,-7.129510045E-3,1.336159795E-2
3.195870875E0,6.373245791E-3,4.964619563E-3,-5.183556676E-3,9.598696220E-3
3.205820875E0,1.182539980E-3,1.184364608E-2,-1.042266190E-2,1.582094290E-2
3.215770875E0,1.384335158E-3,1.780251386E-2,-1.880581498E-2,2.593269289E-2
3.225721875E0,3.784073575E-3,7.808308970E-3,-9.225152135E-3,1.266460950E-2
3.235671875E0,1.303897114E-3,5.585810852E-3,-7.728849649E-3,9.624788177E-3
3.245621875E0,2.292033162E-3,5.301201056E-3,-1.251888871E-2,1.378690405E-2
3.255571875E0,1.089126370E-2,-4.856337580E-3,-9.525114298E-3,1.526209167E-2
3.265521667E0,7.939851908E-3,2.259432650E-3,-1.850643754E-2,2.026411890E-2
3.275472667E0,5.162984070E-3,1.344093295E-3,9.536808729E-4,5.419640071E-3
3.285422667E0,1.023074760E-2,-2.462785563E-4,-7.279198766E-3,1.255848655E-2
3.295372667E0,-2.231829681E-3,3.450649807E-3,-1.506242752E-2,1.561296803E-2
3.305322667E0,6.649419379E-3,5.398479538E-3,-7.427718043E-3,1.133707876E-2
3.315272667E0,-3.916012798E-4,-4.891661843E-3,-1.132020950E-2,1.233810562E-2
3.325223667E0,4.778842558E-3,1.172836114E-3,-9.355545044E-5,4.921547863E-3
3.335173667E0,-5.803254184E-3,1.443353207E-3,-1.102141678E-2,1.253924461E-2
3.345123667E0,-1.833462990E-3,6.710008867E-3,-8.327019811E-3,1.085011818E-2
3.355073667E0,2.289472721E-3,3.902465987E-3,-6.681028605E-3,8.068895174E-3
3.365023667E0,1.463640304E-3,1.004765552E-2,-1.865671098E-2,2.124077421E-2
3.374974667E0,1.228527417E-3,1.300476036E-2,-5.034452677E-3,1.399924231E-2
3.384924667E0,5.303755787E-3,7.644259168E-3,-9.525114298E-3,1.331511645E-2
3.394874667E0,4.988188867E-3,1.275434992E-2,-1.865612626E-2,2.314317431E-2
3.404824667E0,-1.164571212E-3,9.606042275E-3,-1.162075639E-2,1.512197915E-2
3.414774667E0,3.319016648E-3,1.018595473E-2,-1.700896561E-2,2.010160333E-2
3.424725667E0,7.227706723E-4,-1.622852449E-3,-8.776085973E-3,8.954090267E-3
3.434675667E0,1.603605745E-3,4.089099518E-3,-1.581204057E-2,1.641075602E-2
3.444625667E0,1.943283293E-3,4.787132585E-3,-7.728849649E-3,9.296671730E-3
3.454575667E0,1.680690777E-3,4.151163372E-3,-1.296795487E-2,1.371950190E-2
3.464525667E0,7.215258549E-4,8.579576130E-3,-2.030270219E-2,2.205287832E-2
3.474475667E0,-9.611246525E-4,-1.586227409E-3,-1.341702104E-2,1.354460525E-2
3.484426667E0,4.191750130E-3,-2.369675506E-4,-2.789121866E-3,5.040448745E-3
3.494376667E0,-2.254131327E-3,1.615532009E-3,-1.087231278E-2,1.122043836E-2
3.504326667E0,3.593646206E-3,6.566103408E-4,-6.979821324E-3,7.878028682E-3
3.514276667E0,-5.259067984E-5,1.009117502E-3,-1.027297318E-2,1.032255113E-2
3.524226667E0,1.699210005E-4,9.441775486E-3,-1.476305008E-2,1.752494351E-2
3.534177667E0,2.926328152E-3,-1.439639311E-3,-1.401460648E-2,1.438906364E-2
3.544127667E0,8.703881996E-3,1.186042028E-2,-1.176986039E-2,1.884029577E-2
3.554077667E0,-2.159452115E-3,1.375950342E-2,-6.231377721E-3,1.525834972E-2
3.564027667E0,1.356800711E-3,7.730014524E-3,-1.910519242E-2,2.065435572E-2
3.573977667E0,1.469524065E-4,6.300452524E-3,-1.132137895E-2,1.295727279E-2
3.583928667E0,1.766500950E-3,1.158324741E-2,-1.401636064E-2,1.826883992E-2
3.593878667E0,6.782119197E-3,2.807352160E-3,-1.251947343E-2,1.451260080E-2
3.603828667E0,4.324084497E-4,-1.901874271E-3,-1.311764359E-2,1.326185041E-2
3.613778667E0,4.306558839E-3,2.589929384E-3,-1.132137895E-2,1.238659778E-2
3.623728667E0,3.478705022E-4,1.810115241E-3,-9.225736856E-3,9.408068432E-3
3.633679667E0,2.300548169E-3,1.783513835E-3,-1.611141801E-2,1.637227027E-2
3.643629667E0,3.292950857E-3,-2.259016950E-3,-6.530755162E-3,7.654896859E-3
3.653579667E0,5.511823017E-3,-5.958381272E-4,-8.925774693E-3,1.050736265E-2
3.663529667E0,-2.499650430E-3,8.322653814E-3,-5.333245397E-3,1.019599555E-2
3.673479667E0,3.177338156E-3,8.033366245E-4,-9.922724962E-4,3.424241843E-3
3.683430667E0,3.881285819E-3,1.085264581E-2,-1.251830399E-2,1.701623447E-2
3.693380667E0,4.092507348E-3,1.349301200E-2,-1.760830522E-2,2.255797867E-2
3.703330667E0,6.366156042E-3,8.226125648E-3,-1.176986039E-2,1.570753639E-2
3.713280667E0,2.501726649E-3,1.209288936E-2,-1.880523026E-2,2.249740639E-2
3.723230667E0,5.547089037E-3,1.876714456E-2,-7.577991486E-3,2.098575390E-2
3.733180667E0,8.290712256E-5,2.332530840E-3,-1.461336136E-2,1.479857777E-2
3.743131667E0,-3.757694867E-3,8.095798977E-3,-1.536180496E-2,1.776646514E-2
3.753081667E0,3.979674359E-3,7.571105019E-3,-1.311647415E-2,1.565890588E-2
3.763031667E0,-2.452349653E-3,9.502812652E-3,-5.426216125E-4,9.829135533E-3
3.772981667E0,-1.230898281E-2,2.624027103E-3,-7.877368927E-3,1.484754246E-2
3.782931667E0,1.728009826E-3,7.455655629E-3,-1.296678543E-2,1.505690351E-2
3.792882667E0,-1.411588665E-3,2.114679802E-3,-1.521153152E-2,1.542255311E-2
3.802832667E0,2.190732434E-3,-6.546873834E-3,-1.476246536E-2,1.629697055E-2
3.812782667E0,-6.876065223E-3,5.165962495E-3,-2.389347732E-2,2.539420603E-2
3.822732667E0,6.388729492E-3,4.671952715E-3,-1.057118118E-2,1.320578957E-2
3.832682667E0,9.825165540E-3,6.261256764E-3,-2.314503372E-2,2.591196249E-2
3.842633667E0,9.722275101E-4,7.319744410E-3,-4.583632350E-3,8.691005125E-3
3.852583667E0,5.512190752E-3,1.575517069E-2,-1.835440993E-2,2.480915182E-2
3.862533667E0,8.225981751E-4,6.757139481E-3,-1.341468215E-2,1.504291524E-2
3.872483667E0,5.084240804E-3,1.130747810E-2,-1.311530471E-2,1.804770853E-2
3.882433667E0,6.963213861E-3,7.924915241E-3,-2.134759963E-2,2.381198519E-2
3.892384667E0,-2.716943014E-3,5.278628748E-3,-1.042032301E-2,1.199286590E-2
3.902334667E0,1.870090314E-3,9.011014992E-3,-1.296503127E-2,1.589929762E-2
3.912284667E0,-4.666724482E-3,1.120257997E-2,-4.132812023E-3,1.282015018E-2
3.922234667E0,-1.773168147E-3,-1.870987953E-3,-1.146697462E-2,1.175313694E-2
3.932184667E0,-6.437217984E-3,6.788676758E-3,-2.224514723E-2,2.413235344E-2
3.942134667E0,-6.919272949E-3,1.505411351E-3,-7.276275158E-3,1.015316609E-2
3.952085667E0,-3.892715299E-4,8.237997094E-3,-1.820355177E-2,1.998462973E-2
3.962035667E0,-1.449538465E-4,-7.750456939E-3,-1.640670240E-2,1.814581158E-2
3.971985667E0,-1.255682709E-3,-3.939682601E-3,-1.281358838E-2,1.346424470E-2
3.981935667E0,2.083650730E-3,6.085488548E-3,-1.101673901E-2,1.275708860E-2
3.991885667E0,2.672040509E-3,2.590381630E-3,-9.519267082E-3,1.022087683E-2
4.001836667E0,1.066345298E-2,9.023860594E-3,-6.075841784E-3,1.523335626E-2
4.011786667E0,3.513240139E-3,3.574935116E-3,-9.967748523E-3,1.115701698E-2
4.021736667E0,-2.141435381E-3,-2.279011686E-3,-2.932378650E-3,4.287013448E-3
4.031686667E0,9.321909850E-3,-3.523735434E-4,-1.146405101E-2,1.477994032E-2
4.041636667E0,5.589769143E-3,8.288382506E-3,-9.069031477E-3,1.349778262E-2
4.051586667E0,4.716839232E-3,9.661914019E-3,-1.490747631E-2,1.838026128E-2
4.061537667E0,8.908794927E-3,2.096104614E-3,-1.356027782E-2,1.635974988E-2
4.071487667E0,4.868764055E-3,1.191342438E-2,-1.041622996E-2,1.655694387E-2
4.081437667E0,3.610466088E-3,1.188032937E-2,-1.490630686E-2,1.940040400E-2
4.091387667E0,1.086803244E-3,5.176849508E-3,-5.924983621E-3,7.942691170E-3
4.101337667E0,-3.765919798E-3,7.403889498E-3,-1.834914744E-2,2.014177111E-2
4.111288667E0,7.558044714E-3,4.882147555E-3,-1.775039256E-2,1.990064925E-2
4.121238667E0,1.038632237E-2,1.172398715E-3,-1.505599558E-2,1.832848095E-2
4.131188667E0,8.730119092E-3,-6.589676138E-3,-1.161315501E-2,1.595318715E-2
4.141138667E0,8.399938701E-3,2.604607951E-3,-6.373465061E-3,1.086112377E-2
4.151088667E0,8.483350603E-4,-1.495372870E-3,-2.780935764E-3,3.269467253E-3
4.161039667E0,6.043979027E-3,-1.052523714E-2,-1.340941966E-2,1.808653739E-2
4.170989667E0,-1.396013601E-3,-5.476848216E-3,-1.131377757E-2,1.264698712E-2
4.180939667E0,1.057557116E-2,6.751046728E-3,-7.870352268E-3,1.481086703E-2
4.190889667E0,1.064156932E-2,1.533072564E-3,-1.580385447E-2,1.911426496E-2
4.200839667E0,3.646341953E-3,4.745286164E-3,-6.522569060E-3,8.851974783E-3
4.210789667E0,4.345890500E-3,1.209864978E-2,-1.715105295E-2,2.143414818E-2
4.220740667E0,2.364990881E-3,1.165618800E-2,-1.849766672E-2,2.199144321E-2
4.230690667E0,3.046138971E-3,4.600299199E-3,-2.029334664E-2,2.103001744E-2
4.240640667E0,1.369826069E-2,-4.310756957E-4,-1.879645944E-2,2.326230985E-2
4.250590667E0,4.098018806E-3,1.050404669E-2,-1.879587471E-2,2.191834075E-2
4.260540667E0,3.189245006E-5,5.614539867E-3,-1.445490181E-2,1.550703910E-2
4.270491542E0,-4.455635429E-3,-1.252148113E-3,-1.759894967E-2,1.819735122E-2
4.280441542E0,-2.436518774E-3,-5.921914974E-3,-1.550330758E-2,1.677373681E-2
4.290391542E0,8.032781524E-3,6.613749079E-5,-1.700077951E-2,1.880309701E-2
4.300341542E0,3.314087628E-3,-1.039016760E-2,-7.120739222E-3,1.302473365E-2
4.310291542E0,2.629725854E-3,-5.225138145E-3,-1.715046823E-2,1.812059842E-2
4.320241542E0,5.580742504E-3,-8.185405273E-4,-6.074087620E-3,8.289103444E-3
4.330192542E0,7.199610395E-3,-4.218510278E-3,-1.131377757E-2,1.405815712E-2
4.340142542E0,1.405894482E-2,-4.080826622E-3,-1.520568430E-2,2.110734257E-2
4.350092542E0,2.369673222E-3,7.064503168E-3,-6.074672341E-3,9.613750582E-3
4.360042542E0,5.050811176E-3,1.211473648E-2,-1.460692942E-2,1.963771678E-2
4.369992542E0,1.370226466E-3,9.452102903E-3,-9.068446755E-3,1.317028839E-2
4.379942542E0,-3.694252577E-4,2.554409833E-3,-1.774980783E-2,1.793647576E-2
4.389893542E0,4.769238050E-3,2.808125317E-4,-9.666616917E-3,1.078276263E-2
4.399843542E0,4.537361688E-3,6.057907278E-3,-1.101381540E-2,1.336375776E-2
4.409793542E0,2.885377086E-3,5.032081814E-3,-1.011626780E-2,1.166130878E-2
4.419743542E0,1.968330389E-3,7.190662556E-3,-6.823115945E-3,1.010617948E-2
4.429693542E0,1.250886165E-2,-2.136594298E-3,-1.640377879E-2,2.073934940E-2
4.439644542E0,9.885633972E-3,5.089217790E-3,-1.236159861E-2,1.662633504E-2
4.449594542E0,4.302961431E-3,-2.817690996E-3,-1.520568430E-2,1.605203086E-2
4.459544542E0,9.819023679E-3,-1.523790566E-2,-1.670257151E-2,2.464919654E-2
4.469494542E0,1.156202842E-2,9.943704132E-4,-1.370879710E-2,1.796107991E-2
4.479444542E0,5.310219701E-3,6.373219524E-3,-1.520509958E-2,1.732083756E-2
4.489394542E0,8.519772361E-3,3.612823247E-3,-1.071502268E-2,1.415806216E-2
4.499345542E0,1.675083388E-3,4.256836949E-3,-3.979030252E-3,6.062940451E-3
4.509295542E0,6.386760625E-3,-7.464485838E-3,-1.284048557E-3,9.907473987E-3
4.519245542E0,2.651308018E-3,4.311602062E-3,-1.715222239E-2,1.788345827E-2
4.529195542E0,-9.861511923E-4,9.796075642E-3,-1.221249461E-2,1.568695690E-2
4.539145542E0,-3.719388752E-3,-3.417452011E-3,-2.284039378E-2,2.339222989E-2
4.549096542E0,3.894042342E-3,-8.717204968E-4,-1.176342845E-2,1.242182399E-2
4.559046542E0,3.783137107E-3,-4.637522665E-3,-1.595471263E-2,1.704029336E-2
4.568996542E0,3.643381801E-3,-4.158158333E-4,-1.385907054E-2,1.433600258E-2
4.578946542E0,2.377048479E-3,6.297960605E-3,-1.580502391E-2,1.717886632E-2
4.588896542E0,6.980282706E-3,2.869995026E-3,-2.313977122E-2,2.433947884E-2
4.598846542E0,1.517417558E-2,7.292536584E-3,-1.909817576E-2,2.545932073E-2
4.608797542E0,8.150749099E-3,1.801201663E-3,-1.236218333E-2,1.491652155E-2
4.618747542E0,9.679026261E-3,1.349387766E-3,-3.829926252E-3,1.049631992E-2
4.628697542E0,1.891578832E-3,-5.891742428E-3,-1.146346629E-2,1.302696276E-2
4.638647542E0,3.198876923E-3,-1.010460991E-2,-1.310945749E-2,1.685804944E-2
4.648597542E0,1.136161053E-2,5.753319876E-3,-1.954607248E-2,2.332886266E-2
4.658547542E0,3.720165335E-3,3.542350593E-4,-1.939638376E-2,1.975309636E-2
4.668498542E0,-1.540512918E-3,-1.227743982E-4,-1.161198556E-2,1.171436991E-2
4.678448542E0,6.429776489E-3,2.037734098E-3,-1.505482614E-2,1.649673228E-2
4.688398542E0,2.236304171E-3,4.292538083E-3,-6.821946502E-3,8.364561771E-3
4.698348542E0,-3.915916868E-3,-1.704747729E-3,-1.370762765E-2,1.435756336E-2
4.708298542E0,4.078380384E-3,-4.662813015E-3,-1.550389230E-2,1.669567873E-2
4.718248542E0,6.748495423E-3,3.719256276E-3,-1.490513742E-2,1.677909948E-2
4.728199542E0,4.671087053E-3,7.888475211E-3,-1.041447580E-2,1.387473969E-2
4.738149542E0,1.997164472E-3,4.519004629E-3,-1.101381540E-2,1.207121363E-2
4.748099542E0,8.528645968E-3,-2.304562420E-3,-7.720078826E-3,1.173236664E-2
4.758049542E0,6.176507541E-3,7.066349838E-3,-1.415669382E-2,1.698512659E-2
4.767999542E0,1.057829605E-2,-5.111300165E-4,-7.120739222E-3,1.276191711E-2
4.777949542E0,1.540022985E-2,1.613437518E-3,-1.400700510E-2,2.087980967E-2
4.787900542E0,4.316937646E-3,3.368732828E-3,-1.251011789E-2,1.365603753E-2
4.797850542E0,3.722577312E-3,-2.174423042E-3,-1.610323191E-2,1.667032619E-2
4.807800542E0,3.970494687E-3,-1.057499786E-3,-1.206222117E-2,1.274285342E-2
4.817750542E0,7.222428240E-3,2.556961138E-3,-1.026595652E-2,1.280981589E-2
4.827700542E0,-1.662201241E-3,-3.022686155E-3,-1.146346629E-2,1.197124070E-2
4.837651542E0,-3.909046389E-4,1.963140985E-3,-1.281124949E-2,1.296668202E-2
4.847601542E0,3.613771135E-3,6.816399641E-3,-2.179257274E-2,2.311793400E-2
4.857551542E0,1.044267491E-2,1.242596481E-2,-1.490689158E-2,2.203791000E-2
4.867501542E0,5.360544585E-3,3.920590072E-3,-1.056533396E-2,1.247929271E-2
4.877451542E0,4.225195746E-3,1.604576474E-3,-1.700194895E-2,1.759241919E-2
4.887401542E0,-9.827342257E-4,-2.844086835E-3,-1.176284373E-2,1.214162629E-2
4.897352542E0,-3.714809194E-5,9.040643930E-3,-1.340941966E-2,1.617241968E-2
4.907302542E0,8.068319347E-3,3.117448735E-3,-9.966579080E-3,1.319655115E-2
4.917252542E0,9.465027305E-3,-2.123487170E-4,-3.979614973E-3,1.026981836E-2
4.927202542E0,5.404570007E-3,1.537129869E-2,-7.272766829E-3,1.784318743E-2
4.937152542E0,6.217077167E-3,7.249847342E-3,-1.285218000E-3,9.636603151E-3
4.947102542E0,5.286145618E-3,9.589456511E-4,-1.565533519E-2,1.655150845E-2
4.957052542E0,1.190857873E-2,8.703237888E-4,-8.021210432E-3,1.438441961E-2
4.967003542E0,4.200230876E-3,-1.449833110E-3,6.601506472E-4,4.492188146E-3
4.976953542E0,5.741011030E-3,8.198007621E-3,-1.520626903E-2,1.820431691E-2
4.986903542E0,5.583245843E-3,5.024749953E-3,-1.820004344E-2,1.968914237E-2
4.996853542E0,9.886707484E-3,-5.452629095E-3,-1.086588085E-2,1.566989201E-2
5.006803542E0,6.460922048E-4,-6.161585720E-3,-9.519267082E-3,1.135777353E-2
5.016753542E0,4.570249992E-3,-6.645308055E-3,-1.580560863E-2,1.774442358E-2
5.026704542E0,-1.500153425E-3,-9.015958859E-3,-1.595588207E-2,1.838826112E-2
5.036654542E0,-4.876632672E-3,4.808082063E-3,-1.625467479E-2,1.763841410E-2
5.046604542E0,8.046823977E-3,2.502490670E-3,-9.518682361E-3,1.271295204E-2
5.056554542E0,7.211348223E-3,9.126278231E-3,-1.221307933E-2,1.686569905E-2
5.066504542E0,-2.452632878E-3,1.121770736E-2,-1.251187205E-2,1.698232342E-2
5.076454542E0,3.249555838E-3,7.873979369E-3,-1.490689158E-2,1.716900058E-2
5.086405542E0,-1.015725313E-4,1.265366018E-3,-4.578954577E-3,4.751662147E-3
5.096355542E0,2.947855499E-3,1.772811261E-2,-8.470861316E-3,1.986784639E-2
5.106305542E0,-8.666144614E-4,3.927276683E-3,-1.520685375E-2,1.572968288E-2
5.116255542E0,8.284901585E-3,4.508751445E-4,-2.523599803E-2,2.656498597E-2
5.126205542E0,7.111710298E-3,-1.402905778E-2,-1.176459789E-2,1.964170688E-2
5.136155542E0,-1.163712859E-2,1.961390247E-3,-6.824870110E-3,1.363263238E-2
5.146106542E0,5.605739350E-3,9.862870944E-4,-1.685401440E-2,1.778917865E-2
5.156056542E0,2.912324527E-4,2.634224327E-3,-1.879996777E-2,1.898585637E-2
5.166006542E0,2.103999497E-3,-7.790199732E-3,-6.225530505E-3,1.019172487E-2
5.175956542E0,4.005114315E-4,-9.241635116E-3,3.504236341E-3,9.891809812E-3
5.185906542E0,4.631140977E-3,3.922682279E-3,-1.146463573E-2,1.297199967E-2
5.195856542E0,5.916507442E-3,1.377746648E-2,-2.104471385E-2,2.583996177E-2
5.205807542E0,1.157370001E-2,1.634460543E-2,-1.655405223E-2,2.598332742E-2
5.215757542E0,6.012623333E-3,8.901576129E-3,-1.296210766E-2,1.683466459E-2
5.225707542E0,-7.456090744E-4,4.680632176E-3,-1.939872265E-2,1.996934378E-2
5.235657542E0,5.684544286E-4,1.308645692E-3,3.601884842E-4,1.471539918E-3
5.245607542E0,2.320453827E-3,6.294231863E-3,-1.865027905E-2,1.982005977E-2
5.255557542E0,2.247242576E-3,7.668087714E-3,-1.176459789E-2,1.422165363E-2
5.265508542E0,1.113159112E-3,1.155900317E-2,-1.311179638E-2,1.751481892E-2
5.275462792E0,-6.773236454E-3,5.728534305E-3,-3.980784416E-3,9.723141567E-3
5.285412792E0,-4.275456676E-4,5.364844344E-3,-1.954899609E-2,2.027628167E-2
5.295362792E0,2.996791669E-3,-7.326554360E-3,-1.685459912E-2,1.862086654E-2
5.305312792E0,7.965232478E-5,6.889641727E-3,-7.723002434E-3,1.034979585E-2
5.315262792E0,-4.432116374E-3,1.716377864E-2,-1.775214672E-2,2.508740054E-2
5.325212792E0,2.449670441E-3,4.037723963E-3,-1.595588207E-2,1.664014041E-2
5.335163792E0,8.550180166E-3,-2.049446802E-3,-2.284156322E-2,2.447535135E-2
5.345113792E0,6.154701537E-3,1.136233915E-3,-1.685459912E-2,1.797912373E-2
5.355063792E0,-2.840794350E-3,9.898047885E-3,-9.071370363E-3,1.372338241E-2
5.365013792E0,-1.760194637E-3,6.056544831E-3,-1.131670117E-2,1.295560674E-2
5.374963792E0,-5.837533486E-3,1.072517308E-2,-1.416020215E-2,1.869806032E-2
5.384913792E0,-1.190605026E-3,1.186861209E-2,-8.622304201E-3,1.471820720E-2
5.394864792E0,-2.460613414E-3,9.953894505E-3,-1.535829663E-2,1.846650778E-2
5.404814792E0,4.228183308E-3,6.176027886E-3,-1.880113721E-2,2.023619566E-2
5.414764792E0,6.859875745E-3,1.996112658E-3,-2.314211011E-2,2.421981877E-2
5.424714792E0,4.853065652E-3,-7.935056506E-3,-1.924961865E-2,2.137908291E-2
5.434664792E0,1.024992464E-2,4.475803755E-3,-2.014775097E-2,2.304399366E-2
5.444614792E0,9.434907292E-3,2.764115883E-3,-1.550681591E-2,1.836080477E-2
5.454564792E0,8.506931327E-3,2.948742859E-3,-1.864969432E-2,2.070927482E-2
5.464515792E0,3.086546429E-3,3.621297141E-3,-1.954841137E-2,2.011916869E-2
5.474465792E0,6.314045016E-3,6.834848063E-3,-1.879996777E-2,2.097667992E-2
5.484415792E0,8.683855282E-3,-3.884629696E-5,-1.281241894E-2,1.547801443E-2
5.494365792E0,-1.988030481E-4,-2.235203250E-3,-9.668955803E-3,9.925943912E-3
5.504315792E0,1.723469098E-3,2.079418350E-3,-2.284156322E-2,2.300068123E-2
5.514265792E0,2.632640325E-4,1.951207869E-3,-1.460926831E-2,1.474134460E-2
5.524216792E0,-3.248516587E-4,-1.099210305E-3,-1.206456006E-2,1.211888614E-2
5.534166792E0,5.121219875E-3,5.434966392E-3,-1.475895703E-2,1.654063376E-2
5.544116792E0,5.354142340E-3,1.885005282E-3,-1.176576734E-2,1.306343623E-2
5.554066792E0,3.727579422E-3,1.036201988E-3,-3.383198977E-3,5.139513423E-3
5.564016792E0,1.322943962E-3,6.558192536E-3,-1.865086377E-2,1.981450957E-2
5.573966792E0,4.818466580E-3,2.146970822E-3,-8.023549318E-3,9.602314698E-3
5.583916792E0,9.638171126E-3,4.753755491E-3,-9.820398688E-3,1.455791071E-2
5.593867792E0,1.066987807E-2,-1.111918748E-2,-1.475954175E-2,2.133838562E-2
5.603817792E0,1.273023358E-2,6.284859187E-3,-1.026829541E-2,1.752130682E-2
5.613767792E0,8.533531590E-4,2.289235177E-3,-4.878916740E-3,5.456430873E-3
5.623717792E0,1.023347250E-2,3.487098974E-4,-6.075841784E-3,1.190636012E-2
5.633667792E0,2.282472050E-3,-3.196077797E-3,-1.296152294E-2,1.354347329E-2
5.643617792E0,5.676550046E-4,-4.685469833E-3,-1.475720286E-2,1.549357596E-2
5.653567792E0,1.197730863E-2,-2.994556708E-3,-1.370938182E-2,1.844913120E-2
5.663518792E0,4.364128788E-3,2.701454745E-3,-1.565533519E-2,1.647522375E-2
5.673468792E0,9.137622057E-3,1.092411089E-2,-1.056533396E-2,1.773298106E-2
5.683418792E0,4.985888810E-3,-6.265559950E-3,-1.281124949E-2,1.510776100E-2
5.693368792E0,1.396593754E-3,-6.479206018E-3,-1.760187328E-2,1.880841640E-2
5.703318792E0,3.243448238E-3,9.639687748E-3,-1.086588085E-2,1.488324235E-2
5.713268792E0,2.035299281E-3,4.104826472E-3,-6.524907947E-3,7.972858160E-3
5.723219792E0,-5.010426559E-3,9.438197493E-3,-1.251245677E-2,1.645434656E-2
5.733169792E0,2.908610632E-3,4.878658641E-3,-1.490747631E-2,1.595287359E-2
5.743119792E0,1.167864154E-2,5.336874782E-4,-1.415961742E-2,1.836219639E-2
5.753069792E0,6.097983546E-3,5.157778678E-3,-1.296152294E-2,1.522462351E-2
5.763019792E0,2.608303574E-3,9.540269093E-4,-2.643292308E-2,2.657842805E-2
5.772969792E0,3.452305757E-3,3.189653854E-3,-1.266156077E-2,1.350582941E-2
5.782919792E0,9.494194861E-3,7.020822640E-3,-1.775156200E-2,2.132016979E-2
5.792870792E0,9.388842196E-3,7.020701584E-3,-1.820062816E-2,2.164956060E-2
5.802820792E0,9.360318747E-4,6.094855514E-3,-1.730249584E-2,1.836844527E-2
5.812770792E0,8.692105338E-3,3.213537218E-3,-1.445841014E-2,1.717338466E-2
5.822720792E0,2.747930973E-3,-2.814020498E-3,-4.129888415E-3,5.703140742E-3
5.832670792E0,-2.722157543E-3,7.952240696E-3,-1.805093944E-2,1.991192327E-2
5.842620792E0,4.073394262E-3,1.469578883E-3,-2.643409252E-2,2.678644154E-2
5.852570792E0,-2.146284459E-3,1.112235206E-2,-7.124247551E-3,1.338163501E-2
5.862521792E0,-1.443759771E-3,6.868342787E-3,-8.771408200E-3,1.123370717E-2
5.872471792E0,-4.857864480E-3,5.501862194E-3,-2.029743969E-2,2.158368349E-2
5.882421792E0,1.143979877E-2,6.949866907E-3,-2.433845043E-2,2.777642553E-2
5.892371792E0,5.777309448E-3,9.493369170E-3,-2.014775097E-2,2.300941616E-2
5.902321792E0,2.473550378E-3,3.609575301E-3,-1.131670117E-2,1.213322755E-2
5.912271792E0,6.797842726E-3,5.170641410E-3,-1.311238110E-2,1.564866564E-2
5.922221792E0,2.506290218E-3,1.351076949E-2,-1.670432568E-2,2.162999952E-2
5.932172792E0,1.049874651E-2,4.161623265E-3,-1.221366405E-2,1.663479414E-2
5.942122792E0,1.975210004E-3,7.259092110E-3,-9.668955803E-3,1.225090116E-2
5.952072792E0,-7.436561957E-4,4.542369508E-3,-2.239191234E-2,2.286009369E-2
5.962022792E0,2.343611999E-3,8.358885994E-3,-1.296210766E-2,1.560063227E-2
5.971972792E0,4.289821184E-3,1.050006670E-2,-1.416020215E-2,1.814291298E-2
5.981922792E0,1.349909676E-3,1.330226714E-3,-1.835090160E-2,1.844850533E-2
5.991872792E0,2.906331131E-3,6.181965322E-3,-1.835148633E-2,1.958163697E-2
6.001822792E0,1.573590799E-3,6.100992806E-3,-8.023549318E-3,1.020174715E-2
6.011773792E0,-5.815485371E-3,-8.644662949E-4,-7.275105715E-3,9.353840668E-3
6.021723792E0,7.681368431E-4,1.122175473E-3,-3.383783698E-3,3.646821097E-3
6.031673792E0,1.639755699E-4,-7.993326522E-4,-1.715456128E-2,1.717395684E-2
6.041623792E0,4.049525745E-3,6.750324962E-4,-1.386140943E-2,1.445659015E-2
6.051573792E0,9.018416516E-4,1.411406396E-2,-1.565767407E-2,2.109935727E-2
6.061523792E0,-1.144364057E-4,3.411543126E-3,-1.056825757E-2,1.110584487E-2
6.071473792E0,1.005361351E-2,1.065023622E-2,-1.341234326E-2,1.985934611E-2
6.081424792E0,9.012500779E-3,3.140765650E-3,-1.969926953E-2,2.188951345E-2
6.091374792E0,6.811919441E-3,4.672088617E-3,-1.311296582E-2,1.549775891E-2
6.101324792E0,6.167026372E-3,8.797878271E-3,-1.131728590E-2,1.560499396E-2
6.111274792E0,8.508498198E-4,-5.504102865E-4,-1.026888013E-2,1.031875942E-2
6.121224792E0,8.267652299E-3,6.237706875E-3,-8.771408200E-3,1.357205450E-2
6.131174792E0,8.877167429E-3,3.521179562E-3,-1.026829541E-2,1.402286339E-2
6.141124792E0,9.446421282E-3,4.375087749E-4,-1.086705029E-2,1.440552224E-2
6.151075792E0,5.254040749E-3,-3.453330161E-3,1.706802249E-3,6.514875848E-3
6.161025792E0,7.361269919E-3,-4.107600474E-4,-1.026829541E-2,1.264100112E-2
6.170975792E0,6.280962566E-3,5.326193335E-3,-1.251362622E-2,1.498030932E-2
6.180925792E0,1.981132594E-3,1.029500759E-2,-1.909992993E-2,2.178805615E-2
6.190875792E0,8.103569378E-3,1.046944191E-2,-1.595646679E-2,2.073368957E-2
6.200825792E0,-9.472192428E-4,7.528963953E-4,-2.134467602E-2,2.137894459E-2
6.210775792E0,1.346766797E-3,1.554822607E-3,-2.224339306E-2,2.233830318E-2
6.220725792E0,6.494630333E-3,8.404686138E-3,-1.895024121E-2,2.172396405E-2
6.230676792E0,8.609289578E-3,3.030798024E-3,-7.424794436E-3,1.176576288E-2
6.240626792E0,-2.341138353E-3,9.414627047E-3,-2.164522290E-2,2.371986100E-2
6.250576792E0,4.597878086E-3,-7.941585516E-3,-1.206456006E-2,1.515793102E-2
6.260526792E0,6.523850423E-3,-2.180728214E-3,-2.149494946E-2,2.256876275E-2
6.270472625E0,1.055606064E-2,4.935342371E-3,-1.550798535E-2,1.939808316E-2
6.280422625E0,1.246644650E-3,4.994613952E-3,-6.825454831E-3,8.549100834E-3
6.290372625E0,5.307026573E-3,8.771742816E-3,-1.790300488E-2,2.063069526E-2
6.300323625E0,1.034810305E-2,7.388974529E-3,-6.888020039E-4,1.273399503E-2
6.310273625E0,1.002773045E-2,5.928517075E-4,-5.179463625E-3,1.130193322E-2
6.320223625E0,-1.096560785E-3,8.874017699E-4,-9.370163083E-3,9.475752406E-3
6.330173625E0,3.165773917E-3,1.042418994E-2,-6.826039553E-3,1.285615325E-2
6.340123625E0,1.235411600E-3,-2.833384832E-3,-2.493837476E-2,2.512920307E-2
6.350073625E0,6.492588376E-3,4.421231645E-3,-8.024134040E-3,1.122887885E-2
6.360023625E0,1.374444912E-2,5.942251179E-3,-1.401168287E-2,2.050725451E-2
6.369973625E0,-3.144527511E-3,6.658242736E-3,-1.236510694E-2,1.439152943E-2
6.379924625E0,6.675498874E-3,2.943912054E-3,-7.724756598E-3,1.062547730E-2
6.389874625E0,2.582808801E-3,6.991878923E-3,-1.610790968E-2,1.774885986E-2
6.399824625E0,-6.685971329E-4,7.926901239E-3,-1.461043775E-2,1.663573493E-2
6.409774625E0,1.804832190E-3,1.218380671E-2,-2.299359083E-2,2.608462736E-2
6.419724625E0,7.475694905E-3,8.016620596E-3,-1.550915480E-2,1.899173775E-2
6.429674625E0,8.007154274E-3,-4.012379937E-3,1.106293201E-3,9.024278197E-3
6.439624625E0,-1.141799048E-3,-5.473878927E-3,-2.464016676E-2,2.526667516E-2
6.449574625E0,3.707660059E-4,-5.526775672E-3,-2.089736402E-2,2.161903189E-2
6.459525625E0,1.377976311E-3,-1.039317457E-3,-1.356261671E-2,1.367199954E-2
6.469475625E0,7.607179598E-3,1.102779504E-2,-1.730425000E-2,2.188420693E-2
6.479425625E0,6.076515585E-3,-8.367297077E-4,-3.152467847E-2,3.211587630E-2
6.489375625E0,-3.689992789E-2,2.211905294E-2,1.175395596E-1,1.251655114E-1
6.499325625E0,-2.100436807E-1,8.736401651E-2,6.358782703E-1,6.753458327E-1
6.509275625E0,2.926434955E-1,-9.557794752E-2,-9.113002539E-1,9.618957907E-1
6.519225625E0,2.079527712E-1,-6.557698949E-2,-5.976398188E-1,6.361745433E-1
6.529175625E0,-9.287335446E-2,3.862283739E-2,3.288591027E-1,3.438975036E-1
6.539126625E0,-1.614614682E-1,7.134312528E-2,5.110156578E-1,5.406446612E-1
6.549076625E0,4.297749186E-1,6.465842846E-2,-2.011839795E-1,4.789177243E-1
6.559026625E0,2.354629889E0,7.072950659E-1,-2.991628486E-1,2.476700756E0
6.568976625E0,2.978530723E0,8.720436560E-1,3.222038019E-1,3.120243692E0
6.578926625E0,-3.949874865E0,-2.373936518E0,4.244376898E-2,4.608566753E0
6.588876625E0,-3.073323444E0,-2.094962936E0,-2.127310610E-1,3.725512206E0
6.598826625E0,7.108150897E-1,8.297220207E-1,1.087026626E-1,1.097958557E0
6.608776625E0,1.197268568E-2,1.016898045E0,1.720133901E-2,1.017113988E0
6.618727625E0,9.362903034E-1,7.467298577E-1,-5.644726574E-2,1.198929233E0
6.628677625E0,8.341694129E-1,1.032378914E0,4.232243925E-1,1.393112959E0
6.638627625E0,1.773111136E-1,1.740310888E0,1.835692424E-1,1.758925491E0
6.648577625E0,-1.034773202E0,1.887204055E0,5.965259242E-1,2.233413957E0
6.658527625E0,-1.452657698E0,1.149464291E0,1.501139302E0,2.384303200E0
6.668477625E0,-1.208333693E0,1.413348476E0,8.110789776E-2,1.861236878E0
6.678427625E0,2.174677077E-1,2.203842477E0,-1.440801299E0,2.641992099E0
6.688377625E0,2.057062892E0,8.285718734E-1,-2.479950339E-1,2.231488433E0
6.698328625E0,2.196346346E0,-1.439599696E0,1.219666620E0,2.895508802E0
6.708278625E0,1.507870325E0,-2.210761487E0,1.847212608E0,3.251666294E0
6.718228625E0,5.693320226E-1,-1.500172319E0,3.021366255E0,3.421010083E0
6.728178625E0,-7.697466912E-1,7.934619015E-1,5.790766048E0,5.895342499E0
6.738128625E0,-1.449280639E-1,2.447705137E0,1.032172259E1,1.060896893E1
6.748078625E0,7.425451516E-1,4.089223954E0,7.575175467E0,8.640394042E0
6.758028625E0,-1.929029188E0,3.568152840E0,2.077649623E0,4.557356279E0
6.767978625E0,-3.593847259E0,-4.146227875E0,-9.379964771E0,1.086695370E1
6.777929625E0,1.477388205E0,-5.747094364E0,-3.709411629E0,6.997964287E0
6.787879625E0,-1.912974488E0,-4.412334367E0,3.012046378E0,5.674556312E0
6.797829625E0,-4.073513947E0,-6.755388285E-2,-1.949433632E0,4.516455567E0
6.807779625E0,-1.088529580E0,4.436560551E0,-1.266346112E0,4.740421779E0
6.817729625E0,-1.373623954E0,1.061533350E0,8.086523831E-2,1.737882334E0
6.827679625E0,-1.270669397E-2,-3.221075275E0,1.086461200E0,3.399394847E0
6.837629625E0,1.780794670E0,-2.120339413E0,2.186295567E0,3.528024545E0
6.847579625E0,2.601183292E0,-4.885293860E-2,2.240316823E0,3.433301705E0
6.857529625E0,2.162424455E0,7.946098562E-1,3.310835005E0,4.033498826E0
6.867480625E0,-2.158925043E-1,1.300067882E0,4.684976292E0,4.866804796E0
6.877430625E0,-1.810647191E0,9.134846275E-1,4.914784146E0,5.316765992E0
6.887380625E0,1.217948708E-1,-1.296822385E0,3.634918102E0,3.861244864E0
6.897330625E0,5.915086039E0,-4.301972557E0,2.250081673E0,7.652325023E0
6.907280625E0,1.123020565E1,-4.238466532E0,1.823310360E0,1.214111108E1
6.917230625E0,1.064252656E1,-6.856782458E0,-2.567251022E0,1.291780226E1
6.927180625E0,5.810092850E0,-4.542512391E0,-5.454849941E-1,7.395211398E0
6.937130625E0,3.391448228E0,-1.674513632E0,3.452865043E0,5.121346892E0
6.947081625E0,-7.383097941E-1,-3.705848336E-2,-6.672930211E-1,9.958687962E-1
6.957031625E0,-4.234295713E0,2.949874981E0,-1.694413168E0,5.431579749E0
6.966981625E0,-4.803142088E0,2.307051680E0,-2.010801330E0,5.695259727E0
6.976931625E0,-2.891036496E0,4.723673165E-2,-1.556368008E0,3.283687669E0
6.986881625E0,6.353145987E-1,-4.082814236E0,-2.271292448E-1,4.138186127E0
6.996831625E0,2.666228596E0,-4.585114327E0,-1.664180725E0,5.558915883E0
7.006781625E0,2.102163489E0,-3.227826762E0,-3.935704722E0,5.507061703E0
7.016731625E0,8.148504317E-1,-1.222770907E0,-4.296543417E0,4.540862831E0
7.026681625E0,-1.201953650E-2,6.557769299E-2,-3.227377111E0,3.228065663E0
7.036632625E0,-5.820856404E-1,5.503314587E-1,4.891593504E-1,9.385975055E-1
7.046582625E0,-1.317436159E-1,-2.581963786E-1,3.759131089E0,3.770290213E0
7.056532625E0,1.097196103E0,-4.868321586E-1,4.822784055E0,4.969918599E0
7.066482625E0,2.615738474E0,-7.607929230E-1,5.015022379E0,5.707130899E0
7.076432625E0,3.809524732E0,-1.152773596E0,2.063499945E0,4.483235179E0
7.086382625E0,4.733220499E0,-1.796145073E0,-1.563217437E0,5.298411287E0
7.096332625E0,5.192801709E0,-2.016781277E0,-4.066304038E0,6.896914153E0
7.106282625E0,5.107131813E0,-5.708060691E-1,-8.060114297E0,9.558977843E0
7.116232625E0,4.779408824E-1,3.286311490E0,-1.048347294E1,1.099688482E1
7.126183625E0,-5.632771357E0,6.551628553E0,-1.887953083E0,8.843998909E0
7.136133625E0,-3.136871569E0,5.772230374E0,2.459236577E0,7.014731019E0
7.146083625E0,3.161764920E-2,2.728163474E0,7.419520247E-1,2.827431418E0
7.156033625E0,1.176657425E0,1.738345054E-1,-2.930332124E-2,1.189789820E0
7.165983625E0,1.237001860E0,-2.502035272E-1,-9.231934905E-2,1.265424146E0
7.175933625E0,1.086896818E0,-2.851013182E-1,-5.455849814E-1,1.249115858E0
7.185883625E0,7.235724717E-1,1.373788700E-1,-1.418798227E0,1.598567635E0
7.195833625E0,6.886300957E-1,-3.808464047E-1,-4.282214230E-1,8.958956300E-1
7.205783625E0,3.770468840E-1,-1.337686236E0,7.455907470E-1,1.577172908E0
7.215734625E0,-2.982433739E-1,-1.438194610E0,-2.460379708E-1,1.489257376E0
7.225684625E0,-1.003202696E0,-9.041450161E-1,-1.936307802E0,2.360758727E0
7.235634625E0,-1.868221654E0,-7.995082149E-1,-3.084160674E0,3.693441836E0
7.245584625E0,-2.953971248E0,-5.704634222E-1,-2.496943517E0,3.909744438E0
7.255534625E0,-3.568839595E0,-2.418931720E-1,-1.228356167E0,3.782061242E0
7.265484625E0,-2.874034255E0,-1.788195491E-2,9.101191163E-2,2.875530530E0
7.275435000E0,-2.039336619E0,4.988288909E-2,2.257788888E0,3.042859315E0
7.285385000E0,-1.600402366E0,-1.382006961E-1,5.290327418E0,5.528829113E0
7.295335000E0,-1.903264602E0,-1.099010202E0,4.929999186E0,5.397696874E0
7.305286000E0,-2.114654604E0,-2.385230708E0,1.201848400E0,3.406688891E0
7.315236000E0,-1.771906610E0,-3.001061214E0,-2.802173436E0,4.471934415E0
7.325186000E0,-1.312012281E0,-2.872275997E0,-3.586976196E0,4.778885211E0
7.335136000E0,-8.517444621E-1,-2.797180206E0,-2.858879149E0,4.089361286E0
7.345086000E0,-1.749932627E0,-2.552313433E0,-7.228439087E-1,3.177903613E0
7.355036000E0,-2.618440180E0,-1.421820652E0,3.638898886E0,4.703125349E0
7.364986000E0,-1.889848166E0,-8.142008060E-1,5.851530898E0,6.202810886E0
7.374936000E0,-8.622405796E-1,-5.307076183E-1,5.862112604E0,5.948905242E0
7.384886000E0,-1.526055458E0,-7.754185635E-1,4.016079379E0,4.365662927E0
7.394837000E0,-5.414239858E0,-2.699270919E0,1.182067854E0,6.164198338E0
7.404787000E0,-8.201433898E0,3.359546989E-1,2.476993986E0,8.573907088E0
7.414737000E0,-4.632733466E0,3.609812205E0,4.534933814E0,7.420147453E0
7.424687000E0,-1.459983236E0,-6.852977675E-1,5.132192979E0,5.379645793E0
7.434637000E0,2.414819300E-1,-6.682122034E-1,6.348620242E0,6.388254851E0
7.444587000E0,4.036970311E-1,2.881753457E-1,3.994047655E0,4.024727692E0
7.454537000E0,4.630034392E-1,2.990979445E-1,2.228139412E0,2.295307605E0
7.464487000E0,-1.195148733E0,-7.832520783E-1,2.225146222E0,2.644454579E0
7.474437000E0,-1.980848967E0,-6.308262759E-1,4.917395512E0,5.338771680E0
7.484388000E0,-9.372909813E-1,-2.505911976E-1,7.586762309E0,7.648547095E0
7.494338000E0,2.286553681E-3,-1.153578173E0,7.411399049E0,7.500638886E0
7.504288000E0,2.757513280E-1,-2.406953698E-1,5.442590083E0,5.454884038E0
7.514238000E0,3.561337325E-1,8.917237759E-2,3.204774114E0,3.225734036E0
7.524188000E0,4.902027860E-1,1.809958827E-1,1.608116452E0,1.690886396E0
7.534138000E0,1.193227996E0,-1.886428714E-1,2.074273440E0,2.400414441E0
7.544088000E0,6.480812632E-1,-7.593919301E-1,3.839444350E0,3.967117133E0
7.554038000E0,-7.413510771E-1,-3.223061281E-1,5.994153258E0,6.048417640E0
7.563988000E0,-1.346906856E0,-1.541519004E-1,4.246522241E0,4.457675631E0
7.573938000E0,-2.543898120E0,7.247974634E-1,2.402118636E0,3.573083115E0
7.583889000E0,-3.549884091E-1,-1.384782634E0,4.378185166E0,4.605664454E0
7.593839000E0,-5.029226728E-1,-1.383069400E0,3.340530090E0,3.650336075E0
7.603789000E0,-3.344429013E-1,-7.969322240E-1,2.883685377E0,3.010414320E0
7.613739000E0,-6.561876968E-1,-1.600071852E0,2.327884725E0,2.899975779E0
7.623689000E0,-1.413839495E0,-1.235482169E0,8.573322076E-1,2.064068028E0
7.633639000E0,-3.880954903E-1,-2.336926859E0,2.573078942E-1,2.382866468E0
7.643589000E0,6.399564108E-1,-3.904285294E0,1.514858624E0,4.236482564E0
7.653539000E0,7.597100186E-1,-4.958786783E0,7.355709583E-1,5.070285032E0
7.663489000E0,-6.037019196E-1,-1.087158188E0,-9.556367666E-1,1.568314561E0
7.673439000E0,-1.956593255E0,2.107084506E0,-5.875890398E-1,2.934846361E0
7.683390000E0,-3.134458715E0,3.383590740E0,-2.630866975E-1,4.619819514E0
7.693340000E0,-2.441603129E0,-3.326766914E0,8.761000156E-2,4.127527038E0
7.703290000E0,-3.515796578E0,-3.153748972E0,-2.630972224E-1,4.730346531E0
7.713240000E0,-4.042157376E0,-3.248563328E0,-7.732433993E-1,5.243100734E0
7.723190000E0,-3.608378175E0,-3.281847433E0,-1.455335138E0,5.090080156E0
7.733140000E0,-2.589031608E0,-3.673679879E0,-1.641427454E0,4.784693576E0
7.743090000E0,-1.605406559E0,-4.141925493E0,-1.277872728E0,4.622319301E0
7.753040000E0,-1.587297440E0,-2.556740068E0,-1.882320752E0,3.549586504E0
7.762990000E0,-1.972880967E0,-2.206842683E0,-2.037842363E0,3.593774538E0
7.772941000E0,-2.897366107E0,-3.468098209E0,-2.100930604E0,4.983607624E0
7.782891000E0,-3.622516158E0,-3.366000561E0,-1.098039272E0,5.065399622E0
7.792841000E0,-3.288559452E0,-3.433257574E0,-2.751454103E-1,4.762098890E0
7.802791000E0,-3.052614360E0,-3.634466697E0,2.622625324E-1,4.753586461E0
7.812741000E0,-3.181543127E0,-3.629037557E0,2.309115162E-1,4.831712987E0
7.822691000E0,-2.534928199E0,-3.324315761E0,-6.619056889E-1,4.232618031E0
7.832641000E0,-1.445866157E0,-2.622339980E0,-1.847846446E0,3.518768592E0
7.842591000E0,-6.166385919E-1,-1.791937124E0,-3.120657824E0,3.650998092E0
7.852541000E0,1.074197835E-1,-1.465934386E0,-3.754917585E0,4.032357711E0
7.862491000E0,4.486644584E-1,-1.524185518E0,-3.679025696E0,4.007451979E0
7.872442000E0,-4.445760852E-1,-2.308015301E0,-3.348060719E0,4.090732588E0
7.882392000E0,-2.052061037E0,-2.878540996E0,-2.590284959E0,4.382525406E0
7.892342000E0,-2.990442671E0,-3.191638345E0,-1.241564589E0,4.546513534E0
7.902292000E0,-3.076252314E0,-3.371843099E0,6.008525714E-2,4.564675720E0
7.912242000E0,-2.614847943E0,-3.238683288E0,5.191852413E-1,4.194764894E0
7.922192000E0,-1.470944865E0,-3.489781439E0,4.101986964E-1,3.809267155E0
7.932142000E0,-5.602199775E-1,-3.064716927E0,-5.524186955E-1,3.164095871E0
7.942092000E0,5.501996040E-2,-2.754322747E0,-1.895565573E0,3.344023001E0
7.952042000E0,2.825333673E-1,-3.019905621E0,-2.947871432E0,4.229610034E0
7.961992000E0,-1.476188064E-2,-3.293367618E0,-3.252069903E0,4.628438920E0
7.971942000E0,-5.372760880E-1,-3.521206422E0,-3.069578303E0,4.702113484E0
7.981893000E0,-1.171838735E0,-3.615750052E0,-2.576594288E0,4.591916004E0
7.991843000E0,-1.067263037E0,-3.452181796E0,-1.861476306E0,4.064689850E0
8.001793000E0,-4.476797873E-1,-2.779482439E0,-1.714532268E0,3.296294999E0
8.011743000E0,4.762106913E-1,-2.395929650E0,-2.469180937E0,3.473342772E0
8.021693000E0,1.111881970E0,-2.493284037E0,-3.816914443E0,4.692715916E0
8.031643000E0,1.393326001E0,-2.485512210E0,-4.913074420E0,5.679562355E0
8.041593000E0,1.648290916E0,-2.700074619E0,-5.231240720E0,6.113357945E0
8.051543000E0,1.795596312E0,-3.007284698E0,-4.670649444E0,5.838055635E0
8.061493000E0,2.173034667E0,-3.020713706E0,-4.099354255E0,5.536379346E0
8.071443000E0,2.869501786E0,-3.082302428E0,-4.115338204E0,5.888177756E0
8.081394000E0,3.522586657E0,-2.803656290E0,-4.716811457E0,6.520537990E0
8.091344000E0,3.951910281E0,-2.527178007E0,-5.353097863E0,7.117575449E0
8.101294000E0,3.799388584E0,-2.216618497E0,-5.889874599E0,7.351147799E0
8.111244000E0,3.161817545E0,-2.340594817E0,-6.229255766E0,7.367435218E0
8.121194000E0,2.328191704E0,-2.759130912E0,-5.737987910E0,6.779217156E0
8.131144000E0,1.618859541E0,-3.513679009E0,-4.895631591E0,6.239699918E0
8.141094000E0,1.077493910E0,-4.139491298E0,-4.055774957E0,5.894547636E0
8.151044000E0,1.431671457E0,-4.211923097E0,-3.460351818E0,5.635957242E0
8.160994000E0,2.803193775E0,-3.633940155E0,-3.639709311E0,5.857550705E0
8.170944000E0,4.723869047E0,-2.971161477E0,-4.531717261E0,7.188824704E0
8.180895000E0,6.236710382E0,-2.238549502E0,-5.862478055E0,8.847389965E0
8.190845000E0,6.757611342E0,-1.685842466E0,-6.766251773E0,9.710280064E0
8.200795000E0,6.063122921E0,-1.462164979E0,-6.702327088E0,9.155357687E0
8.210745000E0,4.865509660E0,-1.553003667E0,-6.268361945E0,8.085627131E0
8.220695000E0,4.460410466E0,-1.829013442E0,-4.958059974E0,6.915411080E0
8.230645000E0,4.749051250E0,-2.379981223E0,-3.732727402E0,6.492384174E0
8.240595000E0,5.852856461E0,-2.714521042E0,-3.177582808E0,7.191772087E0
8.250545000E0,6.440201672E0,-2.983890281E0,-3.418320862E0,7.878116292E0
8.260495000E0,6.722228671E0,-3.644569516E0,-2.973300388E0,8.204374471E0
8.270445000E0,6.842878949E0,-3.845683037E0,-2.900679139E0,8.368285954E0
8.280395000E0,6.881474081E0,-3.646533011E0,-2.841543324E0,8.290130095E0
8.290346000E0,7.755641007E0,-2.931241074E0,-2.617478605E0,8.694442818E0
8.300296000E0,9.369472527E0,-2.536763348E0,-2.522443224E0,1.002920254E1
8.310246000E0,1.026810128E1,-2.870237950E0,-2.995078343E0,1.107441484E1
8.320196000E0,1.040803801E1,-4.192136119E0,-3.473315095E0,1.174585792E1
8.330146000E0,1.018732200E1,-5.372843910E0,-3.688141798E0,1.209344331E1
8.340096000E0,9.586140518E0,-6.542112209E0,-3.288933674E0,1.206276945E1
8.350046000E0,8.861234881E0,-8.754554186E0,-1.891091284E0,1.259920350E1
8.359996000E0,7.490734656E0,-9.212125708E0,1.556829354E0,1.197489388E1
8.369946000E0,6.596082010E0,-8.319588584E0,5.214973766E0,1.182877016E1
8.379896000E0,5.773372920E0,-7.179696697E0,7.037653211E0,1.159346550E1
8.389846000E0,4.723138145E0,-6.057868613E0,7.595233170E0,1.080247069E1
8.399797000E0,3.752570513E0,-5.627797131E0,6.855603075E0,9.630845213E0
8.409747000E0,2.936628406E0,-5.047378532E0,6.143826776E0,8.476226984E0
8.419697000E0,2.306178106E0,-4.844240413E0,6.553588539E0,8.469630770E0
8.429647000E0,1.746388776E0,-4.503279328E0,7.314804216E0,8.765600902E0
8.439597000E0,1.074059475E0,-4.392188662E0,7.863236791E0,9.070579796E0
8.449547000E0,7.942540531E-1,-3.836827136E0,8.315411918E0,9.192287928E0
8.459497000E0,9.861754583E-1,-3.396128340E0,7.946436238E0,8.697820338E0
8.469447000E0,1.080072313E0,-3.198540398E0,7.138490199E0,7.896534632E0
8.479397000E0,9.824319246E-1,-2.698256135E0,6.567690854E0,7.168006823E0
8.489347000E0,1.137237251E0,-2.297454060E0,5.396731541E0,5.974639324E0
8.499297000E0,1.100804566E0,-1.930876324E0,3.745556193E0,4.355369705E0
8.509247000E0,7.248154436E-1,-1.647346591E0,2.567965552E0,3.135850012E0
8.519198000E0,5.393364823E-2,-1.519699534E0,1.811380286E0,2.365056881E0
8.529148000E0,-5.723722458E-1,-1.421901929E0,1.399011249E0,2.075246385E0
8.539098000E0,-6.252092944E-1,-1.346913142E0,1.215256650E0,1.918830477E0
8.549048000E0,-5.186680185E-1,-1.269132310E0,1.195355067E0,1.818952190E0
8.558998000E0,-4.041445990E-1,-1.066954889E0,1.846209226E0,2.170302766E0
8.568948000E0,-4.201781394E-1,-8.368359625E-1,2.339790825E0,2.520211341E0
8.578898000E0,-5.771168227E-1,-5.919551557E-1,2.685461842E0,2.809836301E0
8.588848000E0,-6.010746194E-1,-3.529654187E-1,2.873121212E0,2.956467619E0
8.598798000E0,-6.459927839E-1,-2.830841750E-1,2.788262326E0,2.876082426E0
8.608748000E0,-6.300146824E-1,-2.385897875E-1,1.821787160E0,1.942357342E0
8.618698000E0,-5.400135716E-1,-7.017126560E-2,1.464218813E-1,5.638954082E-1
8.628649000E0,-3.601911154E-1,-1.379112589E-1,-1.104804500E0,1.170192351E0
8.638599000E0,-3.268184976E-1,-3.841117823E-1,-1.386943765E0,1.475793075E0
8.648549000E0,-2.925989105E-1,-3.136961031E-1,-6.286125201E-1,7.610342094E-1
8.658499000E0,-2.073010076E-1,-1.626110673E-1,4.330851370E-1,5.069307673E-1
8.668449000E0,-1.337238120E-1,-1.648254079E-1,1.068544747E0,1.089420648E0
8.678399000E0,1.197104115E-2,-1.824044770E-1,1.577353665E0,1.587910351E0
8.688349000E0,8.728796616E-2,-1.447291124E-1,1.783934625E0,1.791923115E0
8.698299000E0,1.359140328E-1,-5.955447614E-2,1.761845013E0,1.768082920E0
8.708249000E0,2.665678008E-1,-1.205730951E-1,1.576376595E0,1.603296428E0
8.718199000E0,3.192997822E-1,-4.839155674E-2,1.194165158E0,1.237062860E0
8.728149000E0,1.452251390E-1,4.773549914E-2,1.733623427E-1,2.311352867E-1
8.738099000E0,1.183554655E-1,-7.327204406E-2,-8.759041339E-1,8.868961949E-1
8.748050000E0,1.753087346E-1,2.112482071E-2,-9.131263393E-1,9.300425378E-1
8.758000000E0,2.006061284E-1,3.261109114E-2,-6.773940861E-1,7.072263074E-1
8.767950000E0,1.257165983E-1,7.387547672E-2,-2.878718752E-1,3.226956239E-1
8.777900000E0,4.480787136E-2,2.623821080E-2,1.993391830E-1,2.059910166E-1
8.787850000E0,1.239066658E-1,-1.271862960E-1,5.257594121E-1,5.549343881E-1
8.797800000E0,2.832550599E-1,-1.728127044E-1,7.735848767E-1,8.417429662E-1
8.807750000E0,1.008600846E-1,-4.028573710E-1,1.017772204E0,1.099239317E0
8.817700000E0,-5.901602067E-1,-5.273942935E-1,1.145312256E0,1.392183169E0
8.827650000E0,-1.033025981E0,-6.536830419E-1,7.931151617E-1,1.457215103E0
8.837600000E0,-9.850114238E-1,-6.363343531E-1,5.210459715E-1,1.283221656E0
8.847550000E0,-6.955496907E-1,-7.258458692E-1,5.305705011E-1,1.136726288E0
8.857500000E0,-3.474061784E-1,-7.721710199E-1,7.944091505E-1,1.161044803E0
8.867451000E0,1.680989715E-1,-4.467208439E-1,9.682609051E-1,1.079511907E0
8.877401000E0,6.441430172E-1,-4.608950794E-1,1.065412393E0,1.327572246E0
8.887351000E0,1.274119400E0,-8.110205054E-2,1.020619798E0,1.634509884E0
8.897301000E0,1.834196998E0,5.848443568E-2,2.321654516E-1,1.849756701E0
8.907251000E0,2.081577490E0,8.913437068E-2,-1.592126656E-1,2.089559392E0
8.917201000E0,1.688163372E0,-4.119363427E-2,-1.290538967E-1,1.693590090E0
8.927151000E0,6.322018334E-1,-9.460268676E-2,-4.464577192E-1,7.797136151E-1
8.937101000E0,-3.011330679E-1,-3.514024580E-1,-8.229716295E-1,9.441647711E-1
8.947051000E0,-8.340649670E-1,-5.766904145E-1,-6.139710921E-1,1.185409931E0
8.957001000E0,-1.137062420E0,-7.697333157E-1,-9.180187047E-2,1.376164201E0
8.966951000E0,-8.647070083E-1,-9.020797795E-1,7.680522412E-1,1.466755052E0
8.976902000E0,-6.608990908E-2,-7.002762875E-1,9.012038666E-1,1.143207402E0
8.986852000E0,5.513067743E-1,-2.778608572E-1,6.311478728E-1,8.828892641E-1
8.996802000E0,1.128714350E0,-3.238617799E-1,2.225093597E-1,1.195153945E0
9.006752000E0,1.413530470E0,-1.672239357E-1,4.851376355E-2,1.424214106E0
9.016702000E0,1.285627306E0,-1.074633452E-1,1.937778962E-1,1.304582620E0
9.026652000E0,7.586323768E-1,-3.216521171E-1,7.903663856E-1,1.141780273E0
9.036602000E0,2.129357135E-1,-6.659876302E-1,1.517721421E0,1.671035444E0
9.046552000E0,-7.465315640E-2,-1.020149682E0,2.161253112E0,2.391086255E0
9.056502000E0,4.463787818E-1,-9.351460764E-1,2.310596847E0,2.532313170E0
9.066452000E0,9.931606883E-1,-5.255380949E-1,1.388663431E0,1.786321519E0
9.076402000E0,1.580399480E0,-1.998689407E-1,5.433022285E-1,1.683088655E0
9.086352000E0,1.840775993E0,7.847811252E-2,-1.340766549E-1,1.847320118E0
9.096302000E0,1.844235206E0,1.060509503E-2,-2.700717813E-1,1.863935280E0
9.106253000E0,1.706612214E0,-2.760088979E-1,-3.965493947E-1,1.773684748E0
9.116203000E0,1.273303129E0,-2.420665419E-1,-2.642035156E-1,1.322762476E0
9.126153000E0,8.207514417E-1,-5.321090497E-1,5.670308143E-1,1.130617935E0
9.136103000E0,5.615560663E-1,-7.698018743E-1,1.453336560E0,1.737851345E0
9.146053000E0,1.010489497E0,-8.735216859E-1,2.084932914E0,2.476100647E0
9.156003000E0,1.699038901E0,-6.408603904E-1,1.854156176E0,2.595251501E0
9.165953000E0,2.338561741E0,-3.882271989E-1,7.996400696E-1,2.501802473E0
9.175903000E0,2.805622709E0,-2.669328497E-1,3.733447194E-3,2.818294851E0
9.185853000E0,2.945386366E0,-3.249253153E-1,-4.554998535E-1,2.998058942E0
9.195803000E0,2.662610339E0,-4.911172906E-1,-3.276183236E-1,2.727274056E0
9.205753000E0,2.184879372E0,-6.777099089E-1,3.858285248E-1,2.319881945E0
9.215704000E0,2.041814377E0,-7.760525478E-1,1.338161615E0,2.561628391E0
9.225654000E0,2.352592719E0,-7.869492728E-1,1.823135528E0,3.078604361E0
9.235604000E0,2.665399461E0,-9.386289704E-1,1.693913231E0,3.294650310E0
9.245554000E0,2.866222667E0,-1.129309670E0,1.415625820E0,3.390364165E0
9.255504000E0,2.833877040E0,-1.129505917E0,7.939586225E-1,3.152302807E0
9.265454000E0,2.615911551E0,-9.491497924E-1,-5.232000858E-1,2.831539670E0
9.275407625E0,2.171041936E0,-6.667774428E-1,-2.170535859E0,3.141534842E0
9.285357625E0,1.614563007E0,-5.072486622E-1,-2.902737359E0,3.360059387E0
9.295307625E0,1.184388614E0,-9.653416827E-2,-2.552476570E0,2.815534030E0
9.305257625E0,1.141980513E0,-4.266519573E-1,-1.740363220E0,2.124856589E0
9.315207625E0,9.324525565E-1,-2.200435158E-1,-8.979127613E-1,1.313062925E0
9.325157625E0,1.042533993E0,-3.953417620E-1,-7.130398822E-1,1.323479546E0
9.335108625E0,1.245369226E0,-6.978374138E-1,-6.774654222E-1,1.580152196E0
9.345058625E0,1.519301339E0,-7.069217212E-1,-6.682301836E-1,1.804036157E0
9.355008625E0,1.820254605E0,-9.646310268E-1,-1.141880525E0,2.355362176E0
9.364958625E0,1.880410759E0,-1.058389449E0,-1.585636392E0,2.677755705E0
9.374908625E0,1.704931725E0,-8.117888296E-1,-1.902358868E0,2.680440739E0
9.384858625E0,1.300140679E0,-8.324287699E-1,-2.134414977E0,2.634204004E0
9.394808625E0,8.149995357E-1,-7.504750724E-1,-2.247569125E0,2.505794095E0
9.404758625E0,4.923741496E-1,-9.652906658E-1,-1.712375815E0,2.026437589E0
9.414708625E0,2.985640937E-1,-1.338948211E0,-1.645797079E0,2.142561750E0
9.424658625E0,6.051751256E-2,-1.372943338E0,-1.652969858E0,2.149638372E0
9.434608625E0,-4.103283584E-2,-1.370234908E0,-1.711543171E0,2.192853717E0
9.444558625E0,-4.081356525E-2,-1.447040278E0,-1.730071244E0,2.255823092E0
9.454509625E0,-4.130935067E-1,-1.332351529E0,-1.965162642E0,2.409911005E0
9.464459625E0,-8.245152944E-1,-1.340829553E0,-2.117275034E0,2.638276507E0
9.474409625E0,-1.256131026E0,-1.158596107E0,-2.251367476E0,2.826458138E0
9.484359625E0,-1.420659980E0,-1.079184486E0,-2.392384776E0,2.984362386E0
9.494309625E0,-1.249105012E0,-1.037907237E0,-2.563873671E0,3.034956830E0
9.504259625E0,-8.592044860E-1,-8.792097111E-1,-2.671232058E0,2.940531036E0
9.514209625E0,-5.251431155E-1,-1.001482592E0,-3.062403769E0,3.264515204E0
9.524159625E0,-3.486560208E-1,-1.301410110E0,-3.472478358E0,3.724692637E0
9.534109625E0,-3.854168808E-1,-1.066675538E0,-3.542744349E0,3.719862954E0
9.544059625E0,-4.654781270E-1,-1.273627357E0,-3.328302392E0,3.593938417E0
9.554009625E0,-6.866794646E-1,-1.335449237E0,-3.332048119E0,3.654791105E0
9.563959625E0,-9.192957366E-1,-1.291794218E0,-3.167752469E0,3.542385165E0
9.573910625E0,-1.132912651E0,-1.440412167E0,-3.367599190E0,3.833927828E0
9.583860625E0,-1.297202454E0,-1.584577462E0,-3.327949221E0,3.907539629E0
9.593810625E0,-1.245005529E0,-1.687965005E0,-3.139927323E0,3.776030750E0
9.603760625E0,-1.054259999E0,-1.788547639E0,-2.992889730E0,3.642493067E0
9.613710625E0,-9.136923498E-1,-1.839322521E0,-3.022442143E0,3.654189042E0
9.623660625E0,-8.041260535E-1,-1.945116340E0,-3.194038042E0,3.825176506E0
9.633610625E0,-8.046528876E-1,-1.972774255E0,-3.290359225E0,3.919919433E0
9.643560625E0,-8.732945216E-1,-1.854172110E0,-3.368373946E0,3.942910166E0
9.653510625E0,-8.989117581E-1,-1.903980155E0,-3.308000860E0,3.921230989E0
9.663460625E0,-8.239112771E-1,-1.984398227E0,-3.256847078E0,3.901758451E0
9.673410625E0,-5.642270744E-1,-1.927764435E0,-3.207861444E0,3.784838564E0
9.683360625E0,-2.525447524E-1,-1.802579934E0,-3.168398586E0,3.654014623E0
9.693311625E0,9.006875575E-2,-1.671631685E0,-3.374116496E0,3.766580280E0
9.703261625E0,4.023083174E-1,-1.629397101E0,-3.769800503E0,4.126521868E0
9.713211625E0,7.811447418E-1,-1.706973426E0,-4.037655605E0,4.452707959E0
9.723161625E0,1.080720989E0,-1.532909710E0,-4.050879668E0,4.464011214E0
9.733111625E0,1.357332296E0,-1.523171611E0,-3.928048378E0,4.426281371E0
9.743061625E0,1.665934305E0,-1.561349982E0,-3.810863160E0,4.442502549E0
9.753011625E0,1.890895402E0,-1.535708187E0,-3.819325250E0,4.530025433E0
9.762961625E0,2.214673274E0,-1.569010273E0,-3.781470376E0,4.654684646E0
9.772911625E0,2.486819063E0,-1.686359360E0,-4.107705541E0,5.089334117E0
9.782861625E0,2.648113922E0,-1.616523140E0,-4.340093479E0,5.334985081E0
9.792811625E0,2.954673498E0,-1.465295724E0,-4.395850773E0,5.495515541E0
9.802761625E0,3.151917039E0,-1.468179132E0,-4.363563326E0,5.579499609E0
9.812712625E0,2.893663065E0,-1.614623818E0,-4.113362430E0,5.282049459E0
9.822662625E0,2.405818754E0,-1.729090227E0,-3.338158167E0,4.463296633E0
9.832612625E0,2.202225721E0,-1.869224305E0,-2.135739956E0,3.592378431E0
9.842562625E0,2.302065175E0,-2.167810472E0,-1.551537039E0,3.522239840E0
9.852512625E0,2.454625463E0,-2.425142486E0,-1.219870103E0,3.659861378E0
9.862462625E0,2.859725241E0,-2.921865941E0,-1.169958270E0,4.252544107E0
9.872412625E0,2.802137184E0,-2.829177925E0,-8.475053769E-1,4.071177457E0
9.882362625E0,2.765698505E0,-2.639600668E0,-4.008506066E-1,3.844120331E0
9.892312625E0,3.235739214E0,-2.704714969E0,-2.158254075E-1,4.222803800E0
9.902262625E0,3.811820349E0,-2.797271715E0,-1.947339159E-1,4.732084606E0
9.912212625E0,4.134711784E0,-2.956339955E0,3.327919400E-1,5.093774429E0
9.922163625E0,4.478314348E0,-3.120897560E0,8.179190505E-1,5.519446762E0
9.932113625E0,5.239236202E0,-3.041011730E0,1.087916572E0,6.154747013E0
9.942063625E0,6.185408081E0,-2.560236118E0,1.372598206E0,6.833601389E0
9.952013625E0,6.775934762E0,-2.246194590E0,1.332272884E0,7.261792690E0
9.961963625E0,6.904365345E0,-2.223564258E0,1.050875630E0,7.329313639E0
9.971913625E0,6.178628819E0,-2.365930218E0,1.175599664E0,6.719755535E0
9.981863625E0,4.910092340E0,-2.497924095E0,1.486929399E0,5.706101174E0
9.991813625E0,4.038187994E0,-2.672706726E0,1.312019298E0,5.017142430E0
1.000176362E1,3.650926609E0,-2.740774164E0,1.475709761E0,4.797794016E0
1.001171362E1,3.347514589E0,-2.522371011E0,2.033270425E0,4.658583268E0
1.002166362E1,3.007622667E0,-2.459903744E0,2.468388639E0,4.603244835E0
1.003161363E1,2.755309757E0,-2.300740780E0,2.952588966E0,4.647894319E0
1.004156462E1,2.225773921E0,-1.989021913E0,3.385140837E0,4.513253394E0
1.005151462E1,1.796301778E0,-1.773867181E0,3.671181949E0,4.455432836E0
1.006146463E1,1.578716359E0,-1.678772451E0,3.420976083E0,4.124766617E0
1.007141463E1,1.307108806E0,-1.309802326E0,3.283204572E0,3.768759455E0
1.008136462E1,8.550851226E-1,-9.331732258E-1,2.953138019E0,3.212943666E0
1.009131462E1,5.411106920E-1,-9.345628166E-1,1.894927642E0,2.181045439E0
1.010126463E1,4.864883423E-1,-8.950800776E-1,1.048199360E0,1.461698037E0
1.011121463E1,5.673708299E-1,-8.529453340E-1,7.996728140E-1,1.299577628E0
1.012116462E1,7.761167210E-1,-7.980697998E-1,7.919363630E-1,1.366175601E0
1.013111462E1,1.031359671E0,-6.980449900E-1,8.763988084E-1,1.522840914E0
1.014106463E1,1.340499039E0,-6.626003382E-1,1.025357797E0,1.813101071E0
1.015101463E1,1.466218269E0,-4.766410464E-1,1.118053706E0,1.904475463E0
1.016096562E1,1.352098745E0,-2.612696752E-1,1.088527021E0,1.755370028E0
1.017091562E1,1.042351852E0,-7.443856359E-2,8.263296854E-1,1.332238429E0
1.018086563E1,5.433171389E-1,6.790166885E-2,-1.327890980E-1,5.634155612E-1
1.019081562E1,2.783540699E-1,1.179500341E-2,-1.123574063E0,1.157600442E0
1.020076562E1,2.648765302E-1,-1.113298166E-1,-1.410843090E0,1.439802809E0
1.021071562E1,2.167074600E-1,-4.094483525E-1,-9.234191930E-1,1.033108456E0
1.022066563E1,6.849399179E-2,-5.865944284E-1,1.322102237E-1,6.051974831E-1
1.023061562E1,4.237477183E-3,-5.973421955E-1,1.225816137E0,1.363620495E0
1.024056562E1,1.053712115E-1,-5.741316730E-1,2.005386223E0,2.088612979E0
1.025051562E1,4.153587180E-1,-4.023369688E-1,2.312022398E0,2.383242638E0
1.026046563E1,7.447826618E-1,-1.832400441E-1,2.177659230E0,2.308782763E0
1.027041563E1,6.807878101E-1,-3.329404593E-3,1.493806309E0,1.641627368E0
1.028036304E1,3.411809403E-1,1.293795866E-1,4.238974071E-1,5.593143330E-1
1.029031304E1,-2.741408587E-2,1.473293692E-1,-3.064765459E-1,3.411529691E-1
1.030026304E1,-3.239424714E-1,7.534663618E-2,-6.342983526E-1,7.162054457E-1
1.031021304E1,-4.310269171E-1,7.976303816E-2,-3.000580573E-1,5.312072884E-1
1.032016304E1,-3.587448066E-1,1.090271831E-2,3.061087561E-1,4.717194888E-1
1.033011304E1,-1.886919880E-1,-1.215986967E-1,7.898103154E-1,8.210914953E-1
1.034006304E1,4.757265419E-2,-9.242342949E-2,1.158442179E0,1.163096526E0
1.035001304E1,2.773872328E-1,6.618814230E-2,1.081015688E0,1.117997972E0
1.035996304E1,4.737460899E-1,7.757150173E-2,7.749712515E-1,9.116101888E-1
1.036991304E1,4.560015446E-1,1.478503561E-1,5.650082624E-1,7.409665803E-1
1.037986304E1,1.927917632E-1,2.348417222E-1,1.471779263E-1,3.376101901E-1
1.038981404E1,-1.029329225E-1,2.155576050E-1,-1.225763512E-1,2.684869261E-1
1.039976404E1,-2.998960894E-1,8.870343089E-2,-4.164468849E-1,5.208012779E-1
1.040971404E1,-3.592280790E-1,9.801687598E-3,-4.302088916E-1,5.605538121E-1
1.041966404E1,-2.693318161E-1,-1.211005139E-1,-2.903721446E-1,4.141508711E-1
1.042961404E1,-6.452753305E-2,-1.009936935E-1,-2.289009511E-1,2.583779675E-1
1.043956404E1,1.013994902E-1,-1.134587878E-1,-1.518065822E-1,2.149418330E-1
1.044951404E1,1.507599306E-1,-1.105264091E-1,-2.788303256E-2,1.890029293E-1
1.045946404E1,9.532306373E-2,-1.294339657E-1,1.397882152E-1,2.130267191E-1
1.046941404E1,2.802453518E-2,-1.722928870E-1,2.794635791E-1,3.294997807E-1
1.047936404E1,8.675806224E-3,-1.339602953E-1,3.032167232E-1,3.316036966E-1
1.048931404E1,1.155596924E-1,-1.314354676E-1,8.162420690E-2,1.931109417E-1
1.049926404E1,1.994570044E-1,-1.035600364E-1,-2.853499711E-1,3.632249767E-1
1.050921504E1,2.593561739E-1,-4.103108168E-2,-4.991732919E-1,5.640240686E-1
1.051916504E1,2.969300893E-1,2.273397446E-2,-3.975673950E-1,4.967334749E-1
1.052911504E1,2.768908042E-1,6.553559303E-3,-4.276337779E-1,5.094920162E-1
1.053906504E1,1.979683033E-1,-4.482241631E-2,-2.424167901E-1,3.161746325E-1
1.054901504E1,1.370485023E-1,-1.022642934E-1,-5.020302415E-2,1.782150985E-1
1.055896504E1,1.399060366E-1,-1.448840636E-1,1.211753583E-1,2.350501189E-1
1.056891504E1,2.026264876E-1,-1.315237606E-1,2.963310421E-1,3.823193424E-1
1.057886504E1,2.701273298E-1,-8.560908437E-2,3.308050561E-1,4.355796997E-1
1.058881504E1,2.456178483E-1,-1.237329304E-2,5.991291046E-2,2.531220706E-1
1.059876504E1,2.038728216E-1,-5.899840593E-2,-1.137230819E-1,2.407859603E-1
1.060871504E1,5.915481895E-2,3.350688457E-2,-1.347315431E-1,1.509125330E-1
1.061866604E1,-1.350297511E-1,3.988093436E-2,-2.570915473E-1,2.931204296E-1
1.062861604E1,-2.958802217E-1,2.811048925E-2,-2.316596675E-1,3.768308729E-1
1.063856604E1,-3.124828058E-1,9.734795451E-2,-8.845258534E-2,3.390368535E-1
1.064851604E1,-2.231665868E-1,9.233396709E-2,-9.759704590E-2,2.604881385E-1
1.065846604E1,-2.355217534E-1,1.262776387E-1,-2.817469168E-1,3.883270059E-1
1.066841604E1,-3.469708532E-1,1.229657757E-1,-4.711066568E-1,5.978719236E-1
1.067836604E1,-4.716267666E-1,1.190376163E-2,-5.748356777E-1,7.436461275E-1
1.068831604E1,-5.183027503E-1,-6.465909541E-2,-4.554717869E-1,6.930173794E-1
1.069826604E1,-4.797769082E-1,2.075936973E-2,-8.894024312E-2,4.883924650E-1
1.070821604E1,-3.565886459E-1,-2.884022176E-2,1.232862031E-1,3.784001964E-1
1.071816604E1,-2.440890938E-1,-8.139908910E-2,2.448720360E-1,3.552008044E-1
1.072811704E1,-2.062415287E-1,-4.878448963E-2,3.409733641E-1,4.014702101E-1
1.073806704E1,-1.144317645E-1,-8.040272355E-2,3.320493436E-1,3.602998657E-1
1.074801704E1,8.352981448E-2,-7.246220469E-2,1.185850418E-1,1.621431872E-1
1.075796704E1,3.053760999E-1,3.410505474E-2,1.233762503E-2,3.075222499E-1
1.076791704E1,3.128453332E-1,1.082173437E-1,-2.890863419E-2,3.322934022E-1
1.077786704E1,1.051858547E-1,8.548395395E-2,-3.502248287E-2,1.399933739E-1
1.078781704E1,-1.561738676E-1,5.089299560E-2,-3.774903953E-2,1.685389092E-1
1.079776704E1,-2.742276898E-1,-2.342394590E-2,-2.515121341E-2,2.763731004E-1
1.080771704E1,-2.975034088E-1,-5.649989069E-2,2.223625946E-1,3.756935445E-1
1.081766704E1,-2.525219482E-1,-8.340702295E-2,4.443082827E-1,5.178164886E-1
1.082761704E1,-1.365357015E-1,-1.679402196E-1,4.262304461E-1,4.780358860E-1
1.083756804E1,-1.106383833E-1,2.887296617E-2,4.880869710E-1,5.013016969E-1
1.084751804E1,-1.193913728E-1,2.472670555E-2,3.209448963E-1,3.433239525E-1
1.085746804E1,-5.586663723E-2,1.163186610E-2,9.455181599E-2,1.104374365E-1
1.086741804E1,2.636480302E-2,-1.810239494E-2,1.399648011E-2,3.490989825E-2
1.087736804E1,6.889277190E-2,9.300581217E-3,-4.095506787E-2,8.068477189E-2
1.088731804E1,3.139545500E-2,-5.414521694E-4,-1.730319750E-1,1.758579886E-1
1.089726804E1,-5.415778846E-2,6.046371818E-2,-3.177727818E-1,3.279763225E-1
1.090721804E1,-8.780266732E-2,1.022619545E-2,-5.357897258E-1,5.430327004E-1
1.091716804E1,-7.000666648E-2,-2.693227530E-2,-5.869984710E-1,5.917714811E-1
1.092711804E1,-2.470565557E-2,-1.501290160E-1,-3.740440464E-1,4.038044570E-1
1.093706804E1,-3.087797642E-2,-3.072249895E-1,-7.502328515E-2,3.177564113E-1
1.094701904E1,-4.767936587E-2,-3.739329493E-1,2.750120938E-1,4.666163566E-1
1.095696904E1,-4.644794226E-2,-4.753067118E-1,5.711870152E-1,7.445323955E-1
1.096691904E1,1.196135670E-2,-4.657704878E-1,8.493373096E-1,9.687409803E-1
1.097686904E1,1.311147478E-1,-4.349036211E-1,1.125938092E0,1.214112360E0
1.098681904E1,2.309682342E-1,-3.202683735E-1,1.157843424E0,1.223323159E0
1.099676904E1,2.679045108E-1,-3.356295937E-1,1.003717836E0,1.091727780E0
1.100671904E1,2.452950820E-1,-3.760800469E-1,8.498401701E-1,9.611629382E-1
1.101666904E1,1.827623266E-1,-4.194412440E-1,8.700031239E-1,9.829742930E-1
1.102661904E1,1.564749992E-1,-4.166509527E-1,8.964003789E-1,1.000807714E0
1.103656904E1,2.120285180E-1,-4.001875323E-1,9.090619397E-1,1.015627768E0
1.104651904E1,2.858367518E-1,-3.774494648E-1,1.027236507E0,1.131099283E0
1.105647004E1,4.030623159E-1,-3.353629607E-1,1.191744411E0,1.301991662E0
1.106642004E1,5.035665974E-1,-3.749673218E-1,1.221212039E0,1.373149174E0
1.107637004E1,5.220116392E-1,-3.964119852E-1,1.264538738E0,1.424323289E0
1.108632004E1,3.724120885E-1,-5.056315416E-1,1.032053443E0,1.208092848E0
1.109627004E1,2.511876136E-1,-5.035183579E-1,8.727554083E-1,1.038425711E0
1.110622004E1,2.414438134E-1,-5.693141520E-1,7.951833218E-1,1.007338192E0
1.111617004E1,1.940512535E-1,-7.057256001E-1,8.378498697E-1,1.112518277E0
1.112612004E1,2.074504405E-2,-7.891770619E-1,1.371045771E0,1.582086375E0
1.113607004E1,-2.665564352E-1,-8.738406515E-1,1.874121494E0,2.084941532E0
1.114602004E1,-4.128423688E-1,-8.978130662E-1,2.387685369E0,2.584095305E0
1.115597104E1,-3.314137512E-1,-1.063675478E0,2.782086496E0,2.996872682E0
1.116592104E1,-1.868621019E-1,-1.195533991E0,2.986439667E0,3.222272622E0
1.117587104E1,-1.208508378E-1,-1.324416565E0,2.984522949E0,3.267424276E0
1.118582104E1,-1.820004344E-1,-1.418155325E0,2.974581513E0,3.300367232E0
1.119577104E1,-2.698595273E-1,-1.590202045E0,3.071496774E0,3.469244751E0
1.120572104E1,-1.432257932E-1,-1.697495821E0,3.310219878E0,3.722843178E0
1.121567104E1,4.586251903E-1,-1.600990157E0,3.490400074E0,3.867350414E0
1.122562104E1,9.460087413E-1,-1.580734818E0,3.437534813E0,3.900038550E0
1.123557104E1,1.172832761E0,-1.463855701E0,3.387019547E0,3.871732379E0
1.124552104E1,1.383440114E0,-1.442926177E0,3.028945416E0,3.629111852E0
1.125547204E1,1.474383613E0,-1.691300988E0,2.718212682E0,3.524625690E0
1.126542204E1,1.314068747E0,-1.775914584E0,2.764475268E0,3.538781257E0
1.127537737E1,1.186967821E0,-2.049279955E0,2.916954864E0,3.757268506E0
1.128532737E1,1.816128809E0,-2.320767494E0,3.258142821E0,4.393151518E0
1.129527738E1,2.990902262E0,-1.770150399E0,3.455609141E0,4.901036963E0
1.130522738E1,4.176810567E0,-1.195540058E0,2.965052306E0,5.259904725E0
1.131517737E1,4.852030658E0,-5.972782050E-1,1.982597285E0,5.275380058E0
1.132512737E1,5.095035678E0,-5.015182812E-1,4.478142732E-1,5.139206823E0
1.133507737E1,4.949209628E0,-6.350666036E-1,-1.125257476E0,5.115094322E0
1.134502738E1,4.490016673E0,-6.777699159E-1,-2.386412430E0,5.129774466E0
1.135497837E1,4.121024036E0,-6.337842362E-1,-2.789404871E0,5.016502876E0
1.136492837E1,3.890795183E0,-1.128536010E0,-2.763856632E0,4.904159883E0
1.137487838E1,3.919671657E0,-1.205391228E0,-2.161278840E0,4.635506459E0
1.138482837E1,4.039565306E0,-1.206026235E0,-1.607131488E0,4.511702424E0
1.139477837E1,4.152035329E0,-1.333482965E0,-1.617816982E0,4.651333785E0
1.140472837E1,4.361457451E0,-1.395522946E0,-1.851193392E0,4.939302822E0
1.141467838E1,4.392744148E0,-1.496427177E0,-2.437315950E0,5.241755859E0
1.142462838E1,4.240943413E0,-1.362664372E0,-3.089692140E0,5.421130209E0
1.143457837E1,4.124862733E0,-1.075227456E0,-3.622030839E0,5.593720948E0
1.144452837E1,3.625140973E0,-1.168171873E0,-3.753393216E0,5.347357593E0
1.145447938E1,2.974298508E0,-1.421753556E0,-3.449336833E0,4.771347752E0
1.146442937E1,2.106854126E0,-1.694352357E0,-3.146532923E0,4.148533916E0
1.147437937E1,1.480579323E0,-1.702807724E0,-2.514436047E0,3.378469758E0
1.148432938E1,1.141011044E0,-1.598503921E0,-2.318105257E0,3.038212134E0
1.149427938E1,1.140160859E0,-1.534801430E0,-2.315645918E0,3.002964907E0
1.150422937E1,1.059359940E0,-1.146108208E0,-2.769219698E0,3.178739569E0
1.151417937E1,9.966228247E-1,-1.023622635E0,-3.639677151E0,3.910026869E0
1.152412938E1,5.776628065E-1,-7.347846539E-1,-4.175113705E0,4.278455008E0
1.153407938E1,1.120572102E-1,-5.868593073E-1,-4.151772789E0,4.194541448E0
1.154403037E1,-3.419042408E-1,-6.723540786E-1,-3.606047475E0,3.684092413E0
1.155398037E1,-6.034870344E-1,-1.001333049E0,-2.979982587E0,3.201118663E0
1.156393038E1,-6.825484067E-1,-1.453994518E0,-2.552921836E0,3.016186713E0
1.157388037E1,-6.843364853E-1,-1.654716860E0,-2.554698805E0,3.119758051E0
1.158383037E1,-6.955081755E-1,-1.649960589E0,-2.930123379E0,3.433908062E0
1.159378037E1,-7.912727040E-1,-1.450203037E0,-3.256889763E0,3.651921723E0
1.160373038E1,-9.459648871E-1,-1.288157103E0,-3.499136984E0,3.846837392E0
1.161368037E1,-1.087058201E0,-1.173584129E0,-3.571523759E0,3.913409920E0
1.162363037E1,-1.175309642E0,-1.134154599E0,-3.517733468E0,3.878415677E0
1.163358037E1,-1.106769750E0,-1.161140377E0,-3.414551162E0,3.772578149E0
1.164353137E1,-8.948865348E-1,-1.167416778E0,-3.412196488E0,3.715746051E0
1.165348137E1,-6.497390950E-1,-1.235603937E0,-3.446068239E0,3.718099554E0
1.166343137E1,-4.278863776E-1,-1.326059340E0,-3.618478070E0,3.877486773E0
1.167338138E1,-3.097205812E-1,-1.428426837E0,-3.605584960E0,3.890574889E0
1.168333138E1,-2.513741398E-1,-1.528376217E0,-3.481073765E0,3.810117764E0
1.169328137E1,-2.850979561E-1,-1.508327869E0,-3.262159274E0,3.605276263E0
1.170323137E1,-3.134551978E-1,-1.467914253E0,-3.042197546E0,3.392343191E0
1.171318138E1,-3.433040643E-1,-1.461501027E0,-3.176470082E0,3.513375175E0
1.172313138E1,-3.467568451E-1,-1.425163506E0,-3.226912258E0,3.544614795E0
1.173308237E1,-2.736608022E-1,-1.456616848E0,-3.247645315E0,3.569849152E0
1.174303238E1,-5.855401754E-3,-1.587205931E0,-3.359171013E0,3.715277493E0
1.175298238E1,2.482482183E-1,-1.615389657E0,-3.450681692E0,3.818155977E0
1.176293237E1,3.290000206E-1,-1.708380705E0,-3.652625810E0,4.045797938E0
1.177288237E1,3.574970108E-1,-1.805169812E0,-3.810387197E0,4.231488243E0
1.178283237E1,3.579612797E-1,-1.788865436E0,-3.785580969E0,4.202237392E0
1.179278238E1,3.713356161E-1,-1.713092830E0,-3.648459084E0,4.047694513E0
1.180273237E1,4.961695772E-1,-1.555861347E0,-3.500627439E0,3.862807431E0
1.181268237E1,7.174112606E-1,-1.335497038E0,-3.653827997E0,3.955842551E0
1.182263237E1,9.392727488E-1,-1.239863195E0,-3.926114119E0,4.223016235E0
1.183258337E1,9.044087255E-1,-1.347513359E0,-4.309666908E0,4.605103283E0
1.184253337E1,6.032689333E-1,-1.541410392E0,-4.691367298E0,4.974817236E0
1.185248337E1,3.849467647E-1,-1.488048702E0,-4.607157453E0,4.856786257E0
1.186243338E1,6.266045862E-1,-1.380758581E0,-4.678891094E0,4.918449902E0
1.187238337E1,1.411966340E0,-1.271022569E0,-4.574454560E0,4.953259719E0
1.188233337E1,2.428756211E0,-1.143495088E0,-4.298029194E0,5.067493730E0
1.189228337E1,3.346220600E0,-1.254286522E0,-4.470472940E0,5.723246918E0
1.190223338E1,4.129238790E0,-1.936508800E0,-4.596854659E0,6.475473115E0
1.191218338E1,4.650776512E0,-3.011924171E0,-4.575189555E0,7.185664120E0
1.192213437E1,5.128286455E0,-4.029989613E0,-4.127001060E0,7.718307845E0
1.193208438E1,5.789200748E0,-4.427827442E0,-2.867987942E0,7.832359542E0
1.194203438E1,6.680357344E0,-4.305185309E0,-1.398276254E0,8.069508738E0
1.195198437E1,7.725493932E0,-3.752280491E0,-6.755346715E-1,8.615057311E0
1.196193437E1,8.664012390E0,-2.912580855E0,-6.941118604E-1,9.166789471E0
1.197188438E1,9.459437202E0,-2.135206982E0,-2.271265551E0,9.959854830E0
1.198183438E1,1.027571552E1,-2.178982308E0,-4.218624591E0,1.131967698E1
1.199178437E1,9.639961215E0,-3.141424795E0,-4.931748673E0,1.127473046E1
1.200173437E1,8.038183145E0,-4.280469421E0,-4.497119286E0,1.015671643E1
1.201168538E1,5.963984549E0,-4.672054237E0,-1.256788838E0,7.679630244E0
1.202163537E1,3.911151972E0,-4.980982229E0,2.267966552E0,6.726883824E0
1.203158537E1,2.058006194E0,-4.869598033E0,5.020503559E0,7.290667355E0
1.204153537E1,8.141918890E-1,-4.038333590E0,6.811433208E0,7.960318396E0
1.205148538E1,6.052921065E-1,-3.173894384E0,7.111462029E0,7.811073952E0
1.206143537E1,8.710431243E-1,-2.433556775E0,6.197548655E0,6.714947806E0
1.207138537E1,1.298279365E0,-1.969309487E0,4.444510717E0,5.031638370E0
1.208133537E1,1.811364060E0,-1.547328798E0,3.098518512E0,3.908463014E0
1.209128538E1,2.330532783E0,-1.064673013E0,2.218319598E0,3.389078564E0
1.210123637E1,2.647679474E0,-6.875851983E-1,1.604972988E0,3.171579779E0
1.211118637E1,2.804859355E0,-6.680502355E-1,1.213962661E0,3.128455283E0
1.212113638E1,2.550514245E0,-5.403151783E-1,8.678004777E-1,2.747752004E0
1.213108637E1,1.814797691E0,-4.487825722E-1,5.032224888E-1,1.936008608E0
1.214103637E1,9.476718356E-1,-7.220323151E-1,2.583919680E-1,1.219089407E0
1.215098637E1,3.193018744E-2,-8.292258114E-1,7.591481012E-1,1.124695880E0
1.216093638E1,-7.504394044E-1,-8.571936285E-1,1.470400490E0,1.860112313E0
1.217088638E1,-1.109041466E0,-8.763198709E-1,2.088999653E0,2.522266647E0
1.218083637E1,-9.698455006E-1,-9.882420105E-1,2.375431359E0,2.749526633E0
1.219078738E1,-2.999416246E-1,-9.226035064E-1,2.328123291E0,2.522165789E0
1.220073738E1,5.091501402E-1,-7.106027627E-1,1.876553936E0,2.070179902E0
1.221068737E1,1.033593746E0,-4.374027210E-1,1.304464695E0,1.720832738E0
1.222063737E1,1.317733051E0,-1.597897857E-1,5.693468964E-1,1.444336892E0
1.223058738E1,1.332823838E0,-8.122659624E-2,1.175968623E-1,1.340464906E0
1.224053738E1,1.053289580E0,-1.827921474E-1,-1.376241606E-1,1.077855426E0
1.225048737E1,6.675257403E-1,-3.139756000E-1,3.048972130E-2,7.383094977E-1
1.226043737E1,3.495393889E-1,-5.149847478E-1,4.898399663E-1,7.920418344E-1
1.227038737E1,8.058742248E-2,-5.769593865E-1,9.653244334E-1,1.127487352E0
1.228033254E1,-1.711336034E-1,-5.349331087E-1,1.095708572E0,1.231266590E0
1.229028254E1,-2.836555211E-1,-3.848619801E-1,1.067665325E0,1.169824109E0
1.230023254E1,-2.114821688E-1,-2.856949568E-1,9.503818738E-1,1.014678285E0
1.231018254E1,-4.778425030E-2,-1.876757419E-1,7.903909439E-1,8.137710752E-1
1.232013254E1,1.747739337E-1,1.947064340E-2,7.923637944E-1,8.116436512E-1
1.233008254E1,5.516578265E-1,2.024323601E-1,4.796792597E-1,7.585495436E-1
1.234003254E1,7.211374719E-1,4.442270064E-1,-6.199568868E-2,8.492469323E-1
1.234998254E1,6.342501862E-1,4.736355776E-1,-6.922179472E-1,1.051555821E0
1.235993254E1,3.590740780E-1,4.113343719E-1,-1.207925996E0,1.325600004E0
1.236988354E1,-4.988266982E-2,2.849687326E-1,-1.392331975E0,1.422070247E0
1.237983354E1,-3.471422497E-1,6.376417905E-2,-1.112408220E0,1.167058550E0
1.238978354E1,-4.050654989E-1,-6.271957397E-2,-4.019744414E-1,5.741038712E-1
1.239973354E1,-3.019243424E-1,-7.266422600E-2,2.486458290E-1,3.978230090E-1
1.240968354E1,-3.729763448E-2,-2.450392663E-2,6.484866214E-1,6.500203490E-1
1.241963354E1,3.512064300E-1,-6.751165956E-2,5.729218841E-1,6.753837916E-1
1.242958354E1,5.869945972E-1,-4.622165501E-2,2.995388246E-1,6.606228924E-1
1.243953354E1,6.159296170E-1,7.877865940E-2,2.335260987E-2,6.213861236E-1
1.244948354E1,5.524923704E-1,6.856386602E-2,-2.977940154E-1,6.313716011E-1
1.245943454E1,3.743643276E-1,1.561256281E-1,-5.511351585E-1,6.843053591E-1
1.246938454E1,2.548440237E-1,6.291223973E-2,-7.438225490E-1,7.887809650E-1
1.247933454E1,2.072457880E-1,-7.001748383E-3,-6.337984157E-1,6.668585103E-1
1.248928454E1,1.934675552E-1,-4.241657943E-2,-4.462407875E-1,4.882209557E-1
1.249923454E1,1.679876552E-1,-4.388686180E-2,-1.880558109E-1,2.559509659E-1
1.250918454E1,1.653791392E-1,1.429001033E-2,-5.933403611E-2,1.762810027E-1
1.251913454E1,2.252961427E-1,5.174756616E-2,-1.375031233E-2,2.315712279E-1
1.252908454E1,2.961296055E-1,7.701630861E-2,1.084576643E-1,3.246341325E-1
1.253903454E1,2.361411928E-1,1.145396456E-1,1.101346457E-1,2.846254268E-1
1.254898554E1,1.511761062E-1,1.209514099E-1,-1.005341023E-1,2.181526172E-1
1.255893554E1,8.662569590E-2,1.495194438E-1,-3.326200318E-1,3.748281751E-1
1.256888554E1,-2.312917314E-2,1.408301890E-1,-7.020909709E-1,7.164494624E-1
1.257883554E1,-1.177219927E-1,8.430369347E-2,-9.322502428E-1,9.434278433E-1
1.258878554E1,-1.708601730E-1,5.317837983E-2,-8.668228233E-1,8.851005286E-1
1.259873554E1,-1.705352139E-1,1.461248428E-2,-5.638107526E-1,5.892184219E-1
1.260868554E1,-8.290153116E-2,-2.502842188E-2,-2.214738178E-1,2.378018876E-1
1.261863554E1,6.453045666E-2,-8.403004378E-2,-6.417903900E-2,1.238716156E-1
1.262858654E1,2.466582142E-1,-1.500851619E-1,-1.173887014E-2,2.889699492E-1
1.263853654E1,4.015196011E-1,-1.504427192E-1,2.068394065E-2,4.292770984E-1
1.264848654E1,3.648196983E-1,-6.351450294E-2,-2.055120885E-2,3.708771448E-1
1.265843654E1,2.435257877E-1,-7.147636414E-2,-9.496404469E-2,2.709831170E-1
1.266838654E1,8.900617048E-2,-1.083263943E-1,-1.388123149E-1,1.972956280E-1
1.267833654E1,3.296587095E-2,-2.095411125E-1,-2.233437574E-1,3.080205520E-1
1.268828654E1,7.239466935E-2,-2.381535852E-1,4.862544537E-2,2.536189114E-1
1.269823654E1,1.429315321E-1,-3.273864815E-1,2.679656142E-1,4.465611957E-1
1.270818654E1,1.398310460E-1,-2.882247546E-1,3.662263191E-1,4.865675158E-1
1.271813754E1,2.371074452E-1,-1.796875682E-1,5.470707589E-1,6.227310640E-1
1.272808754E1,3.254976115E-1,-1.799565402E-1,5.122845036E-1,6.330627647E-1
1.273803754E1,3.774632058E-1,-1.186584243E-1,5.380672163E-1,6.678881812E-1
1.274798754E1,4.760169292E-1,-5.495944172E-2,5.610795182E-1,7.378501764E-1
1.275793754E1,4.819922720E-1,-3.268271953E-2,3.751082397E-1,6.116297098E-1
1.276788754E1,2.890070390E-1,2.931033790E-2,-5.556316674E-2,2.957556931E-1
1.277783754E1,1.045947743E-1,4.051272601E-2,-3.656994849E-1,3.825146547E-1
1.278778754E1,-4.226330929E-2,-2.511145234E-2,-5.081633860E-1,5.105357962E-1
1.279773754E1,-1.715330413E-1,-1.532347646E-1,-3.157508147E-1,3.906444090E-1
1.280768854E1,-2.621374751E-1,-1.627616331E-1,1.295930099E-1,3.346666301E-1
1.281763854E1,-2.913609818E-1,-2.648902711E-1,5.077575892E-1,6.425541587E-1
1.282758854E1,-2.686948351E-1,-4.311418149E-1,8.488017046E-1,9.892140884E-1
1.283753854E1,-2.116453792E-1,-4.378558803E-1,1.126067315E0,1.226596567E0
1.284748854E1,-1.323951419E-1,-5.040448996E-1,1.175162877E0,1.285533944E0
1.285743854E1,-1.850789934E-3,-5.075061589E-1,1.130294852E0,1.239004592E0
1.286738854E1,1.858556499E-1,-5.377391875E-1,1.028706497E0,1.175560638E0
1.287733854E1,3.198381646E-1,-6.424180886E-1,9.384915608E-1,1.181424505E0
1.288728954E1,3.924341244E-1,-6.777700621E-1,1.166500812E0,1.405027026E0
1.289723954E1,4.661287759E-1,-7.991395479E-1,1.508982757E0,1.770008196E0
1.290718954E1,4.985115333E-1,-8.457845414E-1,1.838842319E0,2.084515846E0
1.291713954E1,4.580989408E-1,-1.023486103E0,2.100571293E0,2.381129605E0
1.292708954E1,4.286946090E-1,-1.067937221E0,2.485265458E0,2.738761284E0
1.293703954E1,4.336780447E-1,-1.143497573E0,2.627990729E0,2.898620123E0
1.294698954E1,4.956722715E-1,-1.171158119E0,2.621429569E0,2.913622371E0
1.295693954E1,4.948750037E-1,-1.151060362E0,2.594515420E0,2.881206603E0
1.296688954E1,5.214922602E-1,-1.239116506E0,2.595199544E0,2.922742644E0
1.297684054E1,5.001190791E-1,-1.277035407E0,2.812381505E0,3.128966004E0
1.298679054E1,3.367668772E-1,-1.400379790E0,3.167855380E0,3.479911377E0
1.299674054E1,-1.230999693E-1,-1.404823381E0,3.587545715E0,3.854758954E0
1.300669054E1,-3.199502850E-1,-1.483096549E0,3.757870429E0,4.052595924E0
1.301664054E1,1.599903452E-1,-1.511211131E0,3.403809827E0,3.727636964E0
1.302659054E1,8.748469573E-1,-1.271243740E0,2.700217291E0,3.110078980E0
1.303654054E1,1.521539361E0,-1.042194562E0,2.055496861E0,2.761579055E0
1.304649054E1,1.942427206E0,-1.001972735E0,1.744422065E0,2.796422921E0
1.305644054E1,1.979155906E0,-8.907566464E-1,1.791920167E0,2.814512993E0
1.306639154E1,1.773610196E0,-1.011441423E0,1.993243310E0,2.853370949E0
1.307634154E1,1.695397840E0,-1.212907823E0,2.222550643E0,3.047170915E0
1.308629154E1,2.259850032E0,-1.292124001E0,1.897838970E0,3.221536800E0
1.309624154E1,3.088582338E0,-9.335190886E-1,6.147891176E-1,3.284625459E0
1.310619154E1,3.773565525E0,-4.325102095E-1,-5.281035608E-1,3.834808369E0
1.311614154E1,4.169800925E0,-3.554504123E-1,-1.015040969E0,4.306262058E0
1.312609154E1,4.006430304E0,-3.126531791E-1,-1.144462071E0,4.178400319E0
1.313604154E1,3.489096730E0,-2.865024755E-1,-1.008274571E0,3.643143872E0
1.314599254E1,2.891870309E0,-5.891597116E-1,-7.749923015E-1,3.051333498E0
1.315594254E1,2.492711887E0,-8.870987745E-1,-8.826021194E-2,2.647328210E0
1.316589254E1,2.503840892E0,-1.297803547E0,6.878015453E-1,2.902857941E0
1.317584254E1,3.160907133E0,-1.601016762E0,1.203940533E0,3.742200073E0
1.318579254E1,4.149640895E0,-1.766222824E0,1.220575277E0,4.672137265E0
1.319574254E1,4.984978800E0,-2.019535023E0,8.400285423E-1,5.443728805E0
1.320569254E1,5.455486702E0,-2.303333582E0,7.231251597E-1,5.965785007E0
1.321564254E1,5.507760226E0,-2.765551155E0,6.315431446E-1,6.195364609E0
1.322559354E1,5.179871176E0,-2.888725677E0,2.299467257E-1,5.935375045E0
1.323554354E1,4.537809475E0,-2.533786530E0,-1.315722340E0,5.361241861E0
1.324549354E1,3.881747786E0,-1.852050009E0,-4.048420037E0,5.906586146E0
1.325544354E1,3.135410349E0,-1.417142441E0,-5.627911152E0,6.596398615E0
1.326539354E1,2.601105816E0,-1.014561059E0,-5.616718411E0,6.272368877E0
1.327534367E1,2.126285008E0,-8.691233372E-1,-4.740446488E0,5.267665158E0
1.328529367E1,1.672288474E0,-1.024170666E0,-3.843467234E0,4.314824988E0
1.329524367E1,1.313292237E0,-1.061204664E0,-3.333606402E0,3.736819969E0
1.330519467E1,1.203306111E0,-1.368706153E0,-3.175076691E0,3.660930773E0
1.331514467E1,9.589989156E-1,-1.519848492E0,-3.396495545E0,3.842629353E0
1.332509467E1,7.489833015E-1,-1.351109250E0,-3.256282822E0,3.604143450E0
1.333504467E1,6.044319445E-1,-1.193807162E0,-3.141570976E0,3.414671538E0
1.334499467E1,5.504755926E-1,-1.202671176E0,-3.102557184E0,3.372729223E0
1.335494467E1,5.036943591E-1,-1.340043541E0,-3.041712227E0,3.361761141E0
1.336489467E1,3.936655480E-1,-1.273604261E0,-3.435505829E0,3.685069969E0
1.337484467E1,3.033786911E-1,-1.612169157E0,-3.759800595E0,4.102100503E0
1.338479467E1,-4.291739345E-2,-1.371190635E0,-3.893897715E0,4.128491865E0
1.339474567E1,-3.169582647E-1,-1.447977733E0,-3.875661419E0,4.149440142E0
1.340469567E1,-7.457100302E-1,-1.500062391E0,-3.381371722E0,3.773585211E0
1.341464567E1,-1.216220856E0,-1.462698099E0,-2.879840248E0,3.451399535E0
1.342459567E1,-1.644801298E0,-1.480503455E0,-2.448585289E0,3.300429019E0
1.343454567E1,-1.816266804E0,-1.594837279E0,-2.143797419E0,3.230820085E0
1.344449567E1,-1.760922908E0,-1.566023077E0,-2.165906326E0,3.200691797E0
1.345444567E1,-1.546360499E0,-1.393938789E0,-2.626040683E0,3.351176780E0
1.346439567E1,-1.355886279E0,-1.307736066E0,-3.243593779E0,3.750933461E0
1.347434667E1,-1.294058990E0,-1.312212402E0,-3.696332577E0,4.130298365E0
1.348429667E1,-1.387471769E0,-1.361953058E0,-4.045476256E0,4.488415331E0
1.349424667E1,-1.574947536E0,-1.603127315E0,-4.281266397E0,4.835257893E0
1.350419667E1,-1.797182077E0,-1.804802314E0,-4.134558002E0,4.856103858E0
1.351414667E1,-1.808118124E0,-2.003925881E0,-3.910350026E0,4.751404783E0
1.352409667E1,-1.520641521E0,-2.195352904E0,-3.733173544E0,4.590044632E0
1.353404667E1,-1.176984869E0,-2.125254144E0,-3.711039494E0,4.435517184E0
1.354399667E1,-8.793522370E-1,-1.884532023E0,-4.003865715E0,4.511724944E0
1.355394767E1,-6.508857340E-1,-1.709547663E0,-4.572232618E0,4.924582882E0
1.356389767E1,-5.646977752E-1,-1.555409503E0,-4.991952775E0,5.259065963E0
1.357384767E1,-6.176788116E-1,-1.456056392E0,-5.092439514E0,5.332407293E0
1.358379767E1,-6.914589787E-1,-1.499681299E0,-4.952871155E0,5.220928288E0
1.359374767E1,-5.143661124E-1,-1.401554788E0,-4.497809258E0,4.739115575E0
1.360369767E1,1.243995130E-2,-1.595912143E0,-4.243616760E0,4.533803428E0
1.361364767E1,4.032105428E-1,-1.617675772E0,-4.063579820E0,4.392281253E0
1.362359767E1,5.240473473E-1,-1.562918352E0,-4.076302192E0,4.396996584E0
1.363354867E1,6.601670194E-1,-1.444072816E0,-3.869378586E0,4.182494164E0
1.364349867E1,1.183006917E0,-1.222383090E0,-3.419834121E0,3.819553796E0
1.365344867E1,1.740983902E0,-7.125827761E-1,-2.941804946E0,3.491849868E0
1.366339867E1,2.086460207E0,-4.198929049E-1,-2.940841617E0,3.630175707E0
1.367334867E1,2.237494957E0,-4.663317474E-1,-3.290614456E0,4.006493789E0
1.368329867E1,2.915840970E0,-1.113199421E0,-3.906813338E0,5.000453176E0
1.369324867E1,3.288785155E0,-2.032608667E0,-4.950161555E0,6.281059242E0
1.370319867E1,3.679952188E0,-2.693830085E0,-4.397430106E0,6.335310582E0
1.371314967E1,3.779896306E0,-3.292409844E0,-3.299965031E0,6.001445482E0
1.372309967E1,3.586214304E0,-3.224797612E0,-1.517663534E0,5.056041463E0
1.373304967E1,3.726397791E0,-3.350738451E0,-9.140952229E-2,5.012169627E0
1.374299967E1,3.713536840E0,-2.047602535E0,8.856760007E-1,4.332141963E0
1.375294967E1,4.022303740E0,-1.612844218E0,-1.229669452E-2,4.333629548E0
1.376289967E1,4.365918877E0,-1.110830933E0,-1.244548861E0,4.673766668E0
1.377284967E1,4.801636722E0,-8.821514453E-1,-2.168659780E0,5.342002586E0
1.378279967E1,5.669121158E0,-1.197467885E0,-2.632073840E0,6.364014200E0
1.379275067E1,6.334694513E0,-1.927542972E0,-2.458444864E0,7.063124495E0
1.380270067E1,6.004318058E0,-2.689035953E0,-1.600985187E0,6.770960291E0
1.381265067E1,5.957133951E0,-3.105403608E0,-7.770148534E-1,6.762745638E0
1.382260067E1,6.129128045E0,-3.382866855E0,-2.961205423E-2,7.000776787E0
1.383255067E1,6.411872497E0,-3.049090828E0,6.252778530E-1,7.127414411E0
1.384250067E1,6.993100936E0,-2.837864256E0,1.291555213E0,7.656699622E0
1.385245067E1,7.158635026E0,-2.468207960E0,1.606811353E0,7.740797678E0
1.386240067E1,6.775564633E0,-2.390819769E0,1.235013807E0,7.290374090E0
1.387235167E1,5.855336850E0,-2.475540661E0,1.103359069E0,6.452183540E0
1.388230167E1,4.632435551E0,-2.316443186E0,1.535105193E0,5.402028889E0
1.389225167E1,3.421037478E0,-2.459539171E0,2.017527966E0,4.671536092E0
1.390220167E1,2.356243574E0,-2.345757616E0,2.541770611E0,4.185099809E0
1.391215167E1,1.437645995E0,-2.336305885E0,2.712533866E0,3.857847997E0
1.392210167E1,9.059645234E-1,-2.055917861E0,3.048402611E0,3.786862613E0
1.393205167E1,6.938988025E-1,-1.904503627E0,3.101150928E0,3.704830184E0
1.394200167E1,7.537658854E-1,-1.878687000E0,3.174804211E0,3.765236995E0
1.395195267E1,9.988607003E-1,-1.376305341E0,3.330529597E0,3.739567687E0
1.396190267E1,1.305619521E0,-1.081620290E0,3.192113723E0,3.614434230E0
1.397185267E1,1.804506299E0,-9.355527502E-1,2.948816927E0,3.581483380E0
1.398180267E1,1.982524779E0,-7.732650340E-1,2.480918053E0,3.268531428E0
1.399175267E1,1.744516351E0,-7.292612278E-1,2.192077879E0,2.894885950E0
1.400170267E1,1.252568902E0,-6.506243634E-1,2.220856705E0,2.631434100E0
1.401165267E1,5.876007342E-1,-6.836587930E-1,1.971750115E0,2.168055000E0
1.402160267E1,1.584376171E-3,-6.227758294E-1,1.672337590E0,1.784535026E0
1.403155267E1,-3.426888641E-1,-5.728897244E-1,1.175470440E0,1.351802149E0
1.404150367E1,-2.801028442E-1,-5.227352321E-1,8.852848220E-1,1.065569774E0
1.405145367E1,5.105399502E-2,-5.044784707E-1,8.145159709E-1,9.594484378E-1
1.406140367E1,4.293823146E-1,-4.463413596E-1,9.193197101E-1,1.108484782E0
1.407135367E1,4.757248608E-1,-3.768840390E-1,1.159268975E0,1.308533637E0
1.408130367E1,2.972943160E-1,-4.162761462E-1,1.224723877E0,1.327259701E0
1.409125367E1,6.237673984E-2,-3.478912050E-1,1.471990932E0,1.513828409E0
1.410120367E1,-1.738211619E-2,-3.470895517E-1,1.463185610E0,1.503890097E0
1.411115367E1,1.502593724E-2,-3.747316790E-1,1.320608273E0,1.372827673E0
1.412110467E1,1.183528068E-1,-3.668654197E-1,9.003384787E-1,9.793911370E-1
1.413105467E1,2.071804819E-1,-1.893053609E-1,3.960424411E-1,4.853966285E-1
1.414100467E1,2.896529371E-1,2.338769317E-2,-2.292833591E-1,3.701576244E-1
1.415095467E1,3.723317624E-1,1.713526547E-2,-7.602678430E-1,8.467182245E-1
1.416090467E1,4.367537167E-1,3.816419184E-2,-6.821601516E-1,8.108962862E-1
1.417085467E1,4.799068991E-1,-1.939872265E-2,-2.871579301E-1,5.595950492E-1
1.418080467E1,4.661920720E-1,-6.073093593E-2,2.092619079E-1,5.146006614E-1
1.419075467E1,4.542509613E-1,-5.051994324E-3,6.288581032E-1,7.757783011E-1
1.420070567E1,4.186716042E-1,-2.059272408E-2,6.942469311E-1,8.109801316E-1
1.421065567E1,2.763954354E-1,-5.611689806E-2,5.482536507E-1,6.165432738E-1
1.422060567E1,9.080082715E-2,-1.804801583E-2,3.829698211E-1,3.940005139E-1
1.423055567E1,1.040011358E-2,1.458710736E-1,1.126360846E-1,1.845898698E-1
1.424050567E1,1.250982918E-1,3.338257277E-1,-4.885354525E-1,6.047777174E-1
1.425045567E1,2.868309246E-1,4.353310525E-1,-9.580177528E-1,1.090680118E0
1.426040567E1,3.591893412E-1,4.291803664E-1,-1.054131945E0,1.193485202E0
1.427035567E1,3.183895169E-1,4.384113657E-1,-8.048283041E-1,9.702190521E-1
1.428030638E1,1.951060181E-1,3.647925818E-1,-5.081663096E-1,6.552655830E-1
1.429025638E1,1.977879167E-2,1.860420299E-1,-4.220467633E-1,4.616560493E-1
1.430020637E1,-2.049372341E-1,8.680308580E-2,-4.470827866E-1,4.994167235E-1
1.431015637E1,-4.489527261E-1,1.361541706E-1,-3.953378516E-1,6.135051144E-1
1.432010638E1,-5.487450361E-1,1.310706013E-1,-5.593621910E-1,7.944725784E-1
1.433005638E1,-4.120776261E-1,2.420074850E-1,-6.020527124E-1,7.686631650E-1
1.434000637E1,-2.458104410E-1,1.971587563E-1,-5.186053437E-1,6.068326380E-1
1.434995637E1,3.077097237E-5,1.483806986E-1,-4.245277369E-1,4.497117211E-1
1.435990738E1,3.383774927E-1,1.742762625E-1,-4.237284225E-1,5.695764385E-1
1.436985737E1,5.635954289E-1,7.849828541E-2,-5.558269644E-1,7.954529544E-1
1.437980737E1,6.301284838E-1,7.893975019E-2,-4.567248452E-1,7.822346032E-1
1.438975738E1,5.636161134E-1,3.768822849E-2,-4.402959234E-1,7.162011072E-1
1.439970738E1,3.595797160E-1,-1.490174603E-1,-4.748260707E-1,6.139735931E-1
1.440965737E1,1.490051812E-1,-1.748317480E-1,-2.233718240E-1,3.204116975E-1
1.441960737E1,-6.749806479E-3,-2.037783891E-1,1.520568430E-1,2.543471550E-1
1.442955737E1,8.101244196E-3,-2.002531028E-1,2.518208671E-1,3.218395321E-1
1.443950837E1,1.529676931E-1,-1.985246658E-1,1.563434368E-1,2.953886056E-1
1.444945837E1,3.283788271E-1,-5.284888923E-2,2.189098138E-1,3.981798158E-1
1.445940837E1,3.710184778E-1,-2.617915392E-2,2.589790285E-2,3.728414681E-1
1.446935838E1,3.166244618E-1,9.724796712E-2,-3.481478977E-1,4.805363416E-1
1.447930837E1,2.492961855E-1,1.585063219E-1,-5.442108858E-1,6.192239743E-1
1.448925837E1,2.009541839E-1,1.447291124E-1,-6.089781547E-1,6.574066419E-1
1.449920837E1,1.581988315E-1,9.007284880E-2,-4.318461120E-1,4.686481119E-1
1.450915838E1,1.470723110E-1,4.149476588E-2,-1.882183635E-1,2.424422253E-1
1.451910937E1,7.922553286E-2,-5.614730358E-2,-4.928267241E-2,1.088943826E-1
1.452905937E1,-6.953874305E-2,-6.188634574E-2,1.250041151E-1,1.558575804E-1
1.453900938E1,-2.859316228E-1,-5.235363007E-2,2.689134479E-2,2.919262577E-1
1.454895938E1,-4.624057075E-1,-2.747138858E-2,-1.895035815E-1,5.004850877E-1
1.455890937E1,-5.143888434E-1,-7.290308475E-3,-3.919230777E-1,6.467246165E-1
1.456885937E1,-4.785712854E-1,-5.567192495E-2,-4.596390975E-1,6.658813245E-1
1.457880938E1,-3.222770382E-1,-2.085467935E-2,-1.657147694E-1,3.629859389E-1
1.458876037E1,-1.129960538E-1,-7.493440747E-2,3.745901763E-2,1.406643224E-1
1.459871037E1,6.883700408E-2,-1.299648929E-1,1.787499672E-1,2.314756084E-1
1.460866038E1,1.799199220E-1,-1.770449191E-1,2.893506360E-1,3.839789998E-1
1.461861038E1,2.312638110E-1,-2.348276889E-1,1.788265657E-1,3.749745783E-1
1.462856037E1,2.260531379E-1,-2.970251065E-1,4.572171807E-2,3.760510744E-1
1.463851037E1,1.327460479E-1,-3.039932334E-1,6.532392383E-2,3.380837385E-1
1.464846037E1,4.829705112E-2,-2.872818911E-1,1.893398595E-1,3.474378685E-1
1.465841038E1,7.290703163E-2,-2.357217282E-1,5.253705722E-1,5.804260561E-1
1.466836037E1,1.152833384E-1,-2.722948927E-1,7.484751785E-1,8.047669535E-1
1.467831137E1,9.437523007E-2,-2.523178804E-1,7.901950622E-1,8.348528212E-1
1.468826138E1,1.265087499E-1,-2.584024930E-1,5.744439143E-1,6.424656589E-1
1.469821137E1,1.444724927E-1,-1.773624229E-1,1.590992296E-1,2.786436704E-1
1.470816137E1,1.582779881E-1,-1.236037070E-1,-1.546676248E-1,2.534795299E-1
1.471811137E1,1.392326566E-1,-1.337989122E-1,-2.406690574E-1,3.085603292E-1
1.472806138E1,8.577784963E-2,-1.858625203E-1,-1.679770571E-1,2.647999389E-1
1.473801137E1,6.873416618E-2,-2.439779967E-1,1.347391444E-1,2.870614665E-1
1.474796237E1,2.225450277E-3,-3.856554472E-1,4.892926669E-1,6.230107467E-1
1.475791238E1,-4.436735675E-2,-4.596314961E-1,9.268345517E-1,1.035495949E0
1.476786238E1,-3.399300747E-2,-5.619349658E-1,1.202457680E0,1.327716424E0
1.477781237E1,-2.234403826E-2,-6.785325390E-1,1.288295975E0,1.456232187E0
1.478776237E1,-4.294845678E-2,-7.477618182E-1,1.381935040E0,1.571857742E0
1.479771238E1,-8.507157907E-2,-9.000987428E-1,1.471141917E0,1.726752287E0
1.480766238E1,-7.696543783E-2,-1.038448543E0,1.747674286E0,2.034370779E0
1.481761237E1,-3.586367793E-2,-1.130341630E0,2.210131157E0,2.482667544E0
1.482756338E1,9.539622702E-2,-1.301064540E0,2.724375063E0,3.020610676E0
1.483751338E1,2.526856703E-1,-1.482632280E0,3.291281916E0,3.618644107E0
1.484746337E1,3.764222552E-1,-1.611158758E0,3.847990640E0,4.188622474E0
1.485741337E1,6.240375124E-1,-1.716150485E0,4.369803182E0,4.736008356E0
1.486736338E1,1.115919034E0,-1.798414962E0,4.715188855E0,5.168421191E0
1.487731338E1,1.665669864E0,-1.753050216E0,4.698520782E0,5.284291693E0
1.488726337E1,1.959996481E0,-1.572135025E0,4.385044534E0,5.053890611E0
1.489721337E1,2.011802958E0,-1.388761957E0,3.935647420E0,4.633069342E0
1.490716438E1,1.884504687E0,-1.289480913E0,3.340759885E0,4.046578252E0
1.491711437E1,1.670201895E0,-1.258571362E0,2.867217278E0,3.548874633E0
1.492706437E1,1.560684423E0,-1.335573929E0,2.389006255E0,3.150689523E0
1.493701437E1,1.657389476E0,-1.331421821E0,1.918928708E0,2.863897925E0
1.494696438E1,1.756399502E0,-1.028079091E0,1.654494227E0,2.622829955E0
1.495691437E1,1.963172250E0,-1.112420937E0,1.313067119E0,2.610683988E0
1.496686437E1,2.295401980E0,-8.431187958E-1,1.160944787E0,2.706937818E0
1.497681538E1,2.601391745E0,-8.065371528E-1,8.155076587E-1,2.843025489E0
1.498676537E1,2.905978471E0,-8.677304573E-1,3.633167446E-1,3.054450209E0
1.499671537E1,3.126411484E0,-7.299680831E-1,1.134482628E-1,3.212502557E0
1.500666537E1,3.431357814E0,-6.858897981E-1,-1.526696312E-1,3.502566099E0
1.501661538E1,3.887447652E0,-4.292957393E-1,-2.367145854E-1,3.918236577E0
1.502656538E1,4.247782901E0,-6.228151520E-1,-3.935620522E-1,4.311200456E0
1.503651537E1,4.350513217E0,-8.819504473E-1,-7.037164968E-1,4.494443097E0
1.504646537E1,4.438489255E0,-1.126876497E0,-1.093038148E0,4.707947525E0
1.505641638E1,4.599698744E0,-1.445971261E0,-1.490286285E0,5.046683529E0
1.506636637E1,4.955956730E0,-1.579296110E0,-1.974861419E0,5.563790159E0
1.507631637E1,5.199825384E0,-1.600278405E0,-2.641277942E0,6.047761914E0
1.508626638E1,5.357697868E0,-1.406861867E0,-2.693342427E0,6.159405831E0
1.509621638E1,5.265824661E0,-1.284079840E0,-2.701071569E0,6.055869716E0
1.510616637E1,5.003011029E0,-1.229355895E0,-2.644023210E0,5.790707556E0
1.511611637E1,4.732662674E0,-1.372453780E0,-2.571735545E0,5.558376479E0
1.512606738E1,4.255640974E0,-1.137587280E0,-2.689230373E0,5.161060445E0
1.513601737E1,3.806242105E0,-1.042726147E0,-2.695837727E0,4.779361655E0
1.514596737E1,3.419831783E0,-8.585534716E-1,-2.460102550E0,4.299356701E0
1.515591737E1,3.135572902E0,-6.828961699E-1,-2.442309326E0,4.032745894E0
1.516586738E1,2.741272931E0,-5.890409034E-1,-2.681268804E0,3.879529465E0
1.517581737E1,2.326646869E0,-6.390184443E-1,-2.479060392E0,3.459388769E0
1.518576737E1,1.906953610E0,-6.354406793E-1,-2.523288732E0,3.226025876E0
1.519571838E1,1.460110559E0,-1.047257081E0,-2.451763251E0,3.039706117E0
1.520566837E1,9.944891757E-1,-9.278741866E-1,-2.180460631E0,2.569896455E0
1.521561837E1,6.770952934E-1,-1.072824178E0,-2.069369380E0,2.427282304E0
1.522556837E1,3.787709355E-1,-1.274013566E0,-2.137542068E0,2.517074508E0
1.523551838E1,-4.686250985E-2,-1.372196941E0,-2.261566190E0,2.645713924E0
1.524546837E1,-5.804636228E-1,-1.579908460E0,-2.391034654E0,2.924054629E0
1.525541837E1,-9.485932106E-1,-1.629722937E0,-2.121242369E0,2.838220414E0
1.526536837E1,-1.200295379E0,-1.611699041E0,-2.157176433E0,2.948167729E0
1.527531938E1,-1.343297809E0,-1.455640509E0,-2.232005006E0,2.984155600E0
1.528526937E1,-1.460595878E0,-1.317018083E0,-2.423360401E0,3.120985835E0
1.529521937E1,-1.472397314E0,-1.308257784E0,-2.719319560E0,3.357706233E0
1.530516938E1,-1.447395789E0,-1.274800016E0,-2.950545364E0,3.525023063E0
1.531511938E1,-1.486333568E0,-1.192932711E0,-3.211170384E0,3.734152000E0
1.532506937E1,-1.549682302E0,-1.059301030E0,-3.333494135E0,3.825678640E0
1.533501937E1,-1.683111670E0,-1.107207414E0,-3.531623529E0,4.065850207E0
1.534497038E1,-1.901091192E0,-1.107970183E0,-3.544773332E0,4.172189308E0
1.535492037E1,-2.037544155E0,-1.108312976E0,-3.388848556E0,4.106609109E0
1.536487037E1,-1.980414519E0,-1.113162364E0,-3.017259756E0,3.776907273E0
1.537482038E1,-1.822043268E0,-1.322064961E0,-2.739867845E0,3.546064472E0
1.538477038E1,-1.655768920E0,-1.486493343E0,-2.425881720E0,3.291828564E0
1.539472037E1,-1.474780054E0,-1.647805890E0,-2.431259404E0,3.286527461E0
1.540467037E1,-1.340528567E0,-1.771257130E0,-2.654275133E0,3.461147952E0
1.541462138E1,-1.255006022E0,-1.799507514E0,-2.792175867E0,3.550987677E0
1.542457137E1,-1.188307418E0,-1.710573411E0,-2.939061432E0,3.602251798E0
1.543452137E1,-1.156283972E0,-1.602078324E0,-3.012006032E0,3.602197651E0
1.544447137E1,-1.086924300E0,-1.518424403E0,-3.109994257E0,3.627544814E0
1.545442138E1,-8.857064062E-1,-1.575473639E0,-3.128172081E0,3.612762599E0
1.546437137E1,-5.916891074E-1,-1.668029508E0,-3.232617971E0,3.685408713E0
1.547432137E1,-3.567269325E-1,-1.889515167E0,-3.540072756E0,4.028602336E0
1.548427137E1,-2.700583327E-1,-2.035908104E0,-3.663643134E0,4.200015991E0
1.549422237E1,-2.784683830E-1,-2.049009960E0,-3.737947211E0,4.271795385E0
1.550417237E1,-3.407768977E-1,-2.089531457E0,-3.812823147E0,4.361179995E0
1.551412237E1,-4.442234981E-1,-1.864324484E0,-3.691487575E0,4.159341392E0
1.552407238E1,-2.578949547E-1,-1.729556689E0,-3.582460392E0,3.986464424E0
1.553402238E1,2.242214245E-1,-1.648876076E0,-3.550111256E0,3.920759810E0
1.554397237E1,9.160411763E-1,-1.627522629E0,-3.555286041E0,4.015970640E0
1.555392237E1,1.618076599E0,-1.448488780E0,-3.694778388E0,4.285753021E0
1.556387338E1,2.201284320E0,-1.191843448E0,-3.941203444E0,4.668964344E0
1.557382337E1,2.663728911E0,-8.196277530E-1,-4.108181212E0,4.964312061E0
1.558377337E1,2.976093019E0,-7.433620808E-1,-4.459879539E0,5.412969826E0
1.559372338E1,2.999481297E0,-9.418371914E-1,-4.679190764E0,5.637266319E0
1.560367338E1,3.002020742E0,-1.306381705E0,-4.377871170E0,5.466673365E0
1.561362337E1,3.195073584E0,-1.544561457E0,-3.902510372E0,5.274822509E0
1.562357337E1,3.488135448E0,-1.712729718E0,-3.210121978E0,5.040378468E0
1.563352438E1,3.757051234E0,-1.636509361E0,-2.302423609E0,4.700505435E0
1.564347437E1,3.847652671E0,-1.487946083E0,-1.566131104E0,4.412616147E0
1.565342437E1,3.508083808E0,-1.439183082E0,-9.867141330E-1,3.918099633E0
1.566337437E1,3.204433222E0,-1.537782779E0,-2.622312498E-1,3.563977185E0
1.567332438E1,3.068598894E0,-1.612630502E0,4.020241427E-1,3.489770726E0
1.568327437E1,3.128700085E0,-1.547333475E0,8.284504706E-1,3.587385578E0
1.569322437E1,3.443184977E0,-1.441560268E0,9.883320576E-1,3.861401177E0
1.570317538E1,4.098002379E0,-1.431274723E0,7.239256436E-1,4.400708939E0
1.571312537E1,4.465677638E0,-1.862153998E0,9.111131430E-3,4.838385815E0
1.572307537E1,4.449113061E0,-2.231495714E0,-4.644794226E-2,4.977583506E0
1.573302537E1,4.489300389E0,-2.212940598E0,5.531664813E-1,5.035565235E0
1.574297538E1,4.768936169E0,-2.021523369E0,1.079474362E0,5.290989871E0
1.575292538E1,5.230111037E0,-1.971209686E0,1.541341833E0,5.797884419E0
1.576287537E1,5.684578857E0,-1.754334704E0,1.821086079E0,6.221614063E0
1.577282638E1,6.163739469E0,-1.265255606E0,1.068462301E0,6.382332464E0
1.578277638E1,6.489778460E0,-1.397464953E0,4.712680399E-2,6.638701205E0
1.579272637E1,6.561538414E0,-1.860320311E0,-7.045450473E-1,6.856454021E0
1.580267637E1,6.302107980E0,-2.094582867E0,-2.202961886E-1,6.644725186E0
1.581262638E1,5.451636311E0,-1.978473244E0,1.165696235E0,5.915534004E0
1.582257638E1,4.288523668E0,-2.070612499E0,2.150663220E0,5.225344358E0
1.583252637E1,3.225872038E0,-1.887305796E0,2.695490402E0,4.608019323E0
1.584247738E1,2.388975411E0,-1.811916768E0,2.994662021E0,4.237717134E0
1.585242738E1,1.828627671E0,-1.822578873E0,3.022141011E0,3.974796750E0
1.586237737E1,1.595910535E0,-1.682631321E0,2.528674017E0,3.431088877E0
1.587232737E1,1.641505515E0,-1.620944658E0,2.045061336E0,3.082900875E0
1.588227737E1,1.423510790E0,-1.425991764E0,1.742346303E0,2.663757895E0
1.589222738E1,1.170965161E0,-1.181237549E0,1.636890600E0,2.333643587E0
1.590217737E1,9.736549616E-1,-1.133516668E0,1.920037925E0,2.432983694E0
1.591212737E1,8.219778221E-1,-1.178374168E0,2.483836398E0,2.869434870E0
1.592207838E1,8.376296490E-1,-1.043012879E0,3.015905541E0,3.299270454E0
1.593202837E1,8.241026272E-1,-9.051788038E-1,3.098242523E0,3.331306131E0
1.594197837E1,6.475459506E-1,-9.571640593E-1,2.722719716E0,2.957817007E0
1.595192837E1,1.555692289E-1,-8.192843753E-1,2.239099433E0,2.389350318E0
1.596187838E1,-2.237976841E-1,-5.532249534E-1,1.777065316E0,1.874594460E0
1.597182837E1,-3.355967397E-1,-5.771143377E-1,1.226650534E0,1.396552063E0
1.598177837E1,-2.965143705E-1,-4.197529006E-1,9.791759026E-1,1.105847511E0
1.599172938E1,4.468034724E-2,-3.023028034E-1,8.127454340E-1,8.682962967E-1
1.600167938E1,3.915530586E-1,-3.039797848E-1,8.059036070E-1,9.461491062E-1
1.601162937E1,4.365391238E-1,-2.628329283E-1,9.711926991E-1,1.096751026E0
1.602157937E1,3.073878710E-1,-2.872304356E-1,9.515992641E-1,1.040446916E0
1.603152938E1,1.574827303E-1,-2.924935144E-1,1.043186542E0,1.094802004E0
1.604147938E1,2.003061023E-2,-3.901525408E-1,1.170720747E0,1.234182846E0
