"Time (s)","Linear Acceleration x (m/s^2)","Linear Acceleration y (m/s^2)","Linear Acceleration z (m/s^2)","Absolute acceleration (m/s^2)"
4.270875012E-3,-1.148495846E-1,4.126493376E-2,2.733181554E-1,2.993259693E-1
1.422187503E-2,5.475026672E-2,-1.722795297E-3,-9.684626341E-2,1.112643630E-1
2.417187500E-2,1.114415349E-1,-1.546596306E-2,-1.863320518E-1,2.176649839E-1
3.412287502E-2,6.730942356E-2,1.112743411E-2,2.720124722E-3,6.827720973E-2
4.407287503E-2,4.529880450E-2,1.077990394E-2,9.582007706E-2,1.065348543E-1
5.402387501E-2,1.145877755E-1,-2.673207211E-2,-5.281205177E-2,1.289731553E-1
6.397387502E-2,1.159279391E-1,-4.781018362E-2,-6.404747665E-2,1.408090195E-1
7.392487500E-2,6.013771306E-2,-3.802323283E-2,6.033274055E-2,9.328638887E-2
8.387487501E-2,7.773733425E-2,-5.199135394E-2,-2.243459702E-2,9.617434775E-2
9.382587502E-2,7.225288351E-2,-4.568426392E-2,-9.592181861E-2,1.284855106E-1
1.037758750E-1,1.703901482E-3,-9.497458795E-3,7.807787061E-3,1.241235443E-2
1.137258750E-1,-4.187613225E-2,1.858071545E-2,3.669654071E-2,5.869829247E-2
1.236768750E-1,-3.422286243E-2,2.080943651E-2,-6.254181862E-2,7.426786679E-2
1.336268750E-1,-4.772591976E-2,4.120982832E-2,-2.661944926E-2,6.844419950E-2
1.435778750E-1,-6.549854087E-2,5.548078038E-2,1.439526021E-2,8.703677019E-2
1.535278750E-1,-3.232804935E-2,4.782815924E-2,-4.802084327E-2,7.509085816E-2
1.634788750E-1,-1.126110238E-2,4.314930864E-2,-1.135003030E-2,4.601628462E-2
1.734288750E-1,5.167115950E-3,2.128137077E-2,1.978230000E-2,2.951161165E-2
1.833798750E-1,4.815881472E-2,1.637490816E-2,-3.739645243E-2,6.313401386E-2
1.933298750E-1,8.568364550E-2,-8.056261749E-3,-3.110952616E-2,9.151171006E-2
2.032808750E-1,9.899310518E-2,-3.343391772E-2,-1.172951460E-3,1.044932416E-1
2.132308750E-1,1.021710121E-1,-6.037223209E-2,-2.668669224E-3,1.187048605E-1
2.231818750E-1,9.302401163E-2,-8.360670537E-2,-2.167738259E-2,1.269387917E-1
2.331318750E-1,6.147212533E-2,-8.688264448E-2,-1.164648414E-2,1.070656654E-1
2.430828750E-1,4.499849059E-2,-4.293869924E-2,-2.331986547E-2,6.642599019E-2
2.530328750E-1,2.353100477E-2,-1.208879859E-3,-3.274967015E-2,4.034489399E-2
2.629838750E-1,-6.535894317E-3,4.697392215E-2,-1.418885350E-2,4.950344271E-2
2.729338750E-1,-2.682093152E-2,7.202574659E-2,-2.077749610E-2,7.961642345E-2
2.828848750E-1,-3.236236063E-2,7.410355467E-2,-2.047870338E-2,8.341484576E-2
2.928348750E-1,-3.463158737E-2,5.173224463E-2,-1.030162454E-2,6.310067707E-2
3.027848750E-1,-2.341891638E-2,2.567876930E-2,-1.164999247E-2,3.665470177E-2
3.127358750E-1,-1.325794479E-2,5.777400811E-3,-1.614123881E-2,2.167235683E-2
3.226858750E-1,1.867279083E-2,-2.074569273E-2,-1.614240825E-2,3.224335944E-2
3.326368750E-1,4.688935222E-2,-2.403196954E-2,-1.374855816E-2,5.445337238E-2
3.425868750E-1,6.580449186E-2,-2.565816700E-2,-1.344918072E-2,7.189890921E-2
3.525378750E-1,8.439057944E-2,-2.645514250E-2,-1.853918195E-2,9.036230260E-2
3.624878750E-1,8.988909091E-2,-3.130235180E-2,-1.314921856E-2,9.608739689E-2
3.724388750E-1,9.066330794E-2,-4.341699234E-2,-2.242816508E-2,1.029946271E-1
3.823888750E-1,7.033917205E-2,-6.277762586E-2,-9.851973653E-3,9.479288380E-2
3.923398750E-1,4.195309165E-2,-7.305389724E-2,-7.007887959E-3,8.453427881E-2
4.022898750E-1,1.723699789E-2,-7.868667539E-2,-2.332337379E-2,8.386111581E-2
4.122408750E-1,-1.134844516E-2,-6.371392041E-2,-2.047811866E-2,6.787933562E-2
4.221908750E-1,-7.487473846E-3,-3.473465368E-2,-1.793048680E-2,3.980026115E-2
4.321418750E-1,-1.168237599E-2,1.972220158E-3,-3.065578222E-2,3.286555256E-2
4.420918750E-1,-2.415214809E-2,4.740357372E-2,-7.221311331E-4,5.320663993E-2
4.520428750E-1,-5.220567724E-3,6.069086423E-2,-1.075069070E-2,6.185638754E-2
4.619928750E-1,2.407944162E-2,5.782136599E-2,-4.457858741E-2,7.687899797E-2
4.719438750E-1,2.672835365E-2,4.515417270E-2,-1.434614360E-2,5.439775765E-2
4.818938750E-1,3.228540123E-2,1.026528957E-2,4.712855816E-4,3.388134313E-2
4.918448750E-1,4.956493760E-2,-1.122508718E-2,-5.251559794E-2,7.307922857E-2
5.017948750E-1,5.451030247E-2,-3.976110298E-2,-2.392505229E-2,7.158719517E-2
5.117458750E-1,5.227963538E-2,-2.559462422E-2,5.563625693E-3,5.847391722E-2
5.216958750E-1,5.826961902E-2,-1.145021412E-2,-1.524193704E-2,6.130882929E-2
5.316468750E-1,5.901241641E-2,-3.590217819E-3,-2.661886454E-2,6.483763493E-2
5.415968750E-1,4.250584996E-2,1.726319615E-2,-1.022093296E-3,4.588910434E-2
5.515468750E-1,3.686495423E-2,8.970821095E-3,-1.823454201E-2,4.209511853E-2
5.614978750E-1,3.038097222E-2,-1.046419540E-2,-2.077983499E-2,3.826623055E-2
5.714478750E-1,1.641256332E-2,-4.291423686E-2,-1.329598367E-2,4.783081791E-2
5.813988750E-1,1.708150306E-2,-7.000871758E-2,-1.898590922E-2,7.452156086E-2
5.913488750E-1,1.794865885E-2,-7.740589762E-2,-5.358388424E-3,7.964006321E-2
6.012998750E-1,3.666730920E-2,-9.213450395E-2,-5.982871056E-2,1.158133541E-1
6.112498750E-1,2.562654179E-2,-7.971976876E-2,-4.651167691E-2,9.578777200E-2
6.212008750E-1,-6.851776438E-3,-2.056730697E-2,6.005148947E-2,6.384467358E-2
6.311508750E-1,2.010056668E-2,-3.212414598E-3,2.416069508E-3,2.049853118E-2
6.411018750E-1,4.175881335E-2,2.611394833E-2,-4.667481422E-2,6.785480876E-2
6.510518750E-1,3.111633268E-2,6.064366167E-2,-3.708245695E-2,7.759502866E-2
6.610028750E-1,1.765871004E-2,7.476080912E-2,-3.633167446E-2,8.497646256E-2
6.709528750E-1,-2.786677913E-3,6.736402194E-2,2.234104156E-2,7.102674963E-2
6.809038750E-1,7.245947295E-3,4.526165184E-2,-1.209145725E-2,4.740595129E-2
6.908538750E-1,2.300049329E-2,1.807145038E-2,-3.859513164E-2,4.842710188E-2
7.008048750E-1,2.136000669E-2,-1.595604653E-4,-1.195463240E-2,2.447832880E-2
7.107548750E-1,4.971977918E-2,-2.363770732E-2,-4.653272688E-2,7.208392554E-2
7.207058750E-1,5.607866732E-2,-2.035847458E-2,-2.497930527E-2,6.467804965E-2
7.306558750E-1,5.705417475E-2,-3.149151836E-2,-5.063688755E-3,6.536463516E-2
7.406068750E-1,7.684248185E-2,-3.866986636E-2,-4.697243750E-2,9.801293520E-2
7.505568750E-1,3.745055288E-2,-4.699193888E-2,7.656344175E-3,6.057562081E-2
7.605078750E-1,2.377417128E-2,-5.053714684E-2,7.508409619E-3,5.635237924E-2
7.704578750E-1,3.006157720E-2,-7.096607580E-2,-6.553266943E-2,1.011652762E-1
7.804088750E-1,2.253475799E-3,-6.872370971E-2,-3.304963231E-2,7.629092099E-2
7.903588750E-1,-2.310313933E-2,-6.142200830E-2,1.858888328E-2,6.820531308E-2
8.003098750E-1,-1.946049300E-2,-6.398606718E-2,-1.972967505E-2,6.972938877E-2
8.102598750E-1,-4.614554071E-3,-3.358947193E-2,-3.784084082E-2,5.080822736E-2
8.202108750E-1,4.042107090E-3,3.687266981E-2,-1.318547130E-3,3.711699039E-2
8.301608750E-1,3.038327456E-2,9.779265353E-2,-2.123124003E-2,1.045816046E-1
8.401118750E-1,5.216351790E-2,1.063981470E-1,-2.302691996E-2,1.207138655E-1
8.500618750E-1,5.408030828E-2,8.965429779E-2,-3.275376320E-2,1.097058880E-1
8.600128750E-1,5.731795270E-2,5.953911806E-2,-2.841220558E-2,8.739283556E-2
8.699628750E-1,5.177966646E-2,2.201261991E-2,-4.766065478E-3,5.646596032E-2
8.799138750E-1,4.341349772E-2,-2.334488058E-2,7.358720899E-3,4.983839892E-2
8.898638750E-1,5.100052041E-2,-4.816071049E-2,-4.188769877E-2,8.170120211E-2
8.998148750E-1,3.408437021E-2,-7.755078066E-2,-6.116187572E-3,8.493100508E-2
9.097648750E-1,2.174891505E-2,-8.759055957E-2,7.510748506E-3,9.056231432E-2
9.197158750E-1,3.163175104E-2,-8.867293401E-2,-4.771912694E-2,1.055489080E-1
9.296658750E-1,2.339428956E-2,-6.274087520E-2,4.967209697E-3,6.714449625E-2
9.396168750E-1,6.188021530E-3,-4.454223418E-2,9.604051709E-3,4.598412819E-2
9.495711667E-1,1.508413074E-2,-2.551761913E-2,-2.527692854E-2,3.895642441E-2
9.595221667E-1,-2.405887130E-3,-2.348743387E-2,-2.034480214E-2,3.116662986E-2
9.694721667E-1,-8.281452642E-3,-2.706114245E-3,-1.316383660E-2,1.578581978E-2
9.794231667E-1,3.280292549E-3,4.675716860E-4,-2.572774887E-2,2.594023910E-2
9.893731667E-1,2.100515835E-2,4.623192418E-3,-5.880486310E-2,6.261471480E-2
9.993241667E-1,8.262819210E-3,2.698128227E-2,2.291757703E-2,3.635215415E-2
1.009274167E0,1.796147704E-2,4.335051681E-2,1.812636852E-2,5.030355058E-2
1.019225167E0,5.876739523E-2,4.663713166E-2,-4.294546008E-2,8.644617593E-2
1.029175167E0,5.584410718E-2,5.600750945E-2,-2.603414297E-2,8.326573137E-2
1.039126167E0,4.848695315E-2,4.921233223E-2,1.052498817E-5,6.908573210E-2
1.049076167E0,6.189929641E-2,2.436653991E-2,-3.516573966E-2,7.524546770E-2
1.059027167E0,4.260444407E-2,-7.521437947E-3,-9.270760417E-3,4.424542555E-2
1.068977167E0,2.993391147E-2,-4.047621289E-2,-7.773288488E-3,5.093905064E-2
1.078928167E0,2.156903551E-2,-7.112965622E-2,-3.037336171E-2,8.029441069E-2
1.088878167E0,9.970740653E-3,-7.445575349E-2,-1.286036611E-2,7.621327911E-2
1.098829167E0,-4.813647196E-3,-7.448145839E-2,-9.418110251E-3,7.522871556E-2
1.108779167E0,-7.710430920E-3,-6.261695991E-2,-1.690196157E-2,6.531470522E-2
1.118730167E0,1.886521904E-3,-3.112268239E-2,-2.663231313E-2,4.100561458E-2
1.128680167E0,1.016223240E-2,-1.573200680E-2,-2.603414297E-2,3.207091526E-2
1.138631167E0,1.733370535E-2,9.779111864E-3,-1.750188589E-2,2.650291267E-2
1.148581167E0,2.212130503E-2,1.709866555E-2,-3.561422110E-2,4.527791122E-2
1.158532167E0,2.662869060E-2,1.912198946E-2,-2.423787832E-2,4.077023902E-2
1.168482167E0,3.651794939E-2,2.255926148E-2,-2.184344351E-2,4.816240163E-2
1.178433167E0,4.068653906E-2,1.944655561E-2,-1.465896964E-2,4.741780654E-2
1.188383167E0,2.985316051E-2,1.137827966E-2,-2.648203969E-2,4.149668501E-2
1.198334167E0,4.108944420E-2,4.849363177E-2,-1.660258412E-2,6.569338282E-2
1.208284167E0,3.815464900E-2,6.280461442E-2,-1.435783803E-2,7.487552568E-2
1.218235167E0,3.781764838E-2,3.305171995E-2,-1.346029043E-2,5.199778976E-2
1.228185167E0,4.213016636E-2,-2.180163592E-2,-2.184168935E-2,5.222376509E-2
1.238136167E0,3.250962367E-2,-5.317031250E-2,-1.136289418E-2,6.334882104E-2
1.248086167E0,2.607845390E-2,-5.668178021E-2,-6.124373674E-3,6.269304521E-2
1.258037167E0,1.714963683E-2,-6.831496193E-2,-1.810005605E-2,7.272314690E-2
1.267987167E0,1.566347104E-2,-6.382838879E-2,-1.450752676E-2,6.730435255E-2
1.277938167E0,9.249705872E-3,-6.448961295E-2,-1.345912099E-2,6.652529725E-2
1.287888167E0,8.574918914E-3,-4.769603957E-2,-1.765098989E-2,5.157517687E-2
1.297839167E0,5.475944867E-3,-3.199346528E-2,-2.079562247E-2,3.854900396E-2
1.307789167E0,8.830008265E-3,-1.564415696E-2,-2.483487904E-2,3.065093652E-2
1.317740167E0,1.447292312E-2,1.122411874E-2,-1.750071645E-2,2.533222101E-2
1.327690167E0,2.073993231E-2,2.095860447E-2,-1.794919789E-2,3.451929313E-2
1.337641167E0,3.185677291E-2,3.973596452E-2,-3.127090931E-2,5.976345560E-2
1.347591167E0,3.693053441E-2,4.891443030E-2,-1.734985828E-2,6.369853566E-2
1.357542167E0,3.998151104E-2,5.669520596E-2,-2.258896351E-2,7.295977574E-2
1.367492167E0,3.724848133E-2,4.824523930E-2,-1.929639637E-2,6.393280371E-2
1.377443167E0,4.636071368E-2,3.339678790E-2,-1.136230946E-2,5.825601506E-2
1.387393167E0,3.115477812E-2,1.308640210E-2,-2.273806751E-2,4.072952042E-2
1.397344167E0,2.030437413E-2,-1.558475290E-2,-1.195989490E-2,2.825227809E-2
1.407294167E0,1.782694083E-2,-2.817469442E-2,-2.258720934E-2,4.027151910E-2
1.417245167E0,2.417351784E-2,-4.787558564E-2,-2.842506945E-2,6.069938417E-2
1.427195167E0,2.091925453E-2,-5.808148486E-2,-1.524895370E-2,6.358934410E-2
1.437146167E0,1.186678712E-2,-6.260381281E-2,-1.899175644E-2,6.648868195E-2
1.447096167E0,2.317831717E-3,-5.335096406E-2,2.561080456E-3,5.346266775E-2
1.457047167E0,1.370191291E-2,-4.433155169E-2,-1.240662217E-2,4.803075230E-2
1.466997167E0,3.167860642E-2,-3.980471956E-2,-3.351214707E-2,6.091809095E-2
1.476948167E0,2.403042551E-2,-2.912912903E-2,-4.325770140E-3,3.800894363E-2
1.486898167E0,2.868729423E-2,-1.320320024E-2,-9.414017200E-3,3.295313440E-2
1.496849167E0,3.579668163E-2,4.585509854E-3,-2.872327745E-2,4.612435348E-2
1.506799167E0,3.053742636E-2,1.693065403E-2,-1.989164293E-2,4.018530718E-2
1.516750167E0,3.623562024E-2,2.533253191E-2,-1.974312365E-2,4.842053571E-2
1.526700167E0,3.339016410E-2,3.651391572E-2,-1.869471788E-2,5.289292558E-2
1.536651167E0,3.078210492E-2,5.438551466E-2,-1.674817979E-2,6.469794212E-2
1.546601167E0,4.323773864E-2,4.254872193E-2,-3.066864610E-2,6.797397762E-2
1.556552167E0,1.994714123E-2,2.623605464E-2,-1.794393539E-2,3.752604194E-2
1.566502167E0,1.967290681E-2,1.658244777E-2,-1.345268905E-2,2.903404346E-2
1.576453167E0,1.871253362E-2,-7.343467888E-3,-1.360471666E-2,2.427290157E-2
1.586403167E0,1.116443146E-2,-3.265336925E-2,-4.623978138E-3,3.481764246E-2
1.596354167E0,1.504773182E-2,-5.663440862E-2,-2.483195543E-2,6.364366806E-2
1.606304167E0,1.430760223E-2,-6.354417299E-2,-1.749779284E-2,6.744436342E-2
1.616255167E0,2.223467706E-2,-6.821414314E-2,-1.719783068E-2,7.377882872E-2
1.626205167E0,2.511128789E-2,-6.779158588E-2,-2.812510729E-2,7.757124180E-2
1.636156167E0,3.023203268E-2,-5.305867637E-2,-1.091090441E-2,6.203423871E-2
1.646106167E0,3.066914402E-2,-3.542866793E-2,-1.734927356E-2,4.996783165E-2
1.656057167E0,3.446213689E-2,-1.161387220E-2,-3.126798570E-2,4.796048203E-2
1.666007167E0,2.953183317E-2,1.462155660E-3,-3.156736314E-2,4.325234659E-2
1.675958167E0,2.700225459E-2,2.020625054E-2,-1.809654772E-2,3.827400362E-2
1.685908167E0,3.452617760E-2,2.839073990E-2,-2.213755846E-2,4.988148501E-2
1.695859167E0,2.941514924E-2,4.314074338E-2,-2.438288927E-2,5.762725079E-2
1.705809167E0,1.927239081E-2,4.630322367E-2,-1.645055652E-2,5.278289855E-2
1.715760167E0,2.116842815E-2,2.930920957E-2,-1.480456531E-2,3.906798267E-2
1.725711167E0,1.904436768E-2,2.291104002E-2,-1.031565785E-2,3.152802709E-2
1.735661167E0,1.941046276E-2,4.281317596E-3,-1.091382802E-2,2.267614136E-2
1.745612167E0,1.954577555E-2,-8.573658108E-3,-1.959518909E-2,2.897440924E-2
1.755562167E0,2.616583323E-2,-2.994888126E-2,-2.408585072E-2,4.649424182E-2
1.765513167E0,2.054778275E-2,-4.575244793E-2,-1.959401965E-2,5.384629489E-2
1.775463167E0,2.113623192E-2,-5.310656872E-2,-1.495366931E-2,5.908180910E-2
1.785414167E0,2.933530277E-2,-6.460275200E-2,-1.660141468E-2,7.286756840E-2
1.795364167E0,2.614610345E-2,-6.331187408E-2,-1.989164293E-2,7.132804205E-2
1.805315167E0,3.003732040E-2,-4.544816431E-2,-2.662646592E-2,6.063616860E-2
1.815265167E0,3.395728006E-2,-3.352943747E-2,-1.330533922E-2,4.954141801E-2
1.825216167E0,3.271830989E-2,-1.726376717E-2,-1.854327500E-2,4.138089543E-2
1.835166167E0,3.089685653E-2,-5.289172009E-4,-2.213463485E-2,3.801101889E-2
1.845117167E0,2.402497572E-2,1.833876406E-2,-1.569977403E-2,3.405866454E-2
1.855067167E0,3.195999454E-2,3.925489856E-2,-1.629911363E-2,5.317940783E-2
1.865018167E0,2.343482264E-2,3.920043723E-2,-3.246608019E-2,5.603491370E-2
1.874968167E0,2.274813111E-2,4.136949842E-2,-1.555359364E-2,4.970741538E-2
1.884919167E0,2.279927598E-2,2.780457024E-2,-1.121379018E-2,3.766497314E-2
1.894869167E0,3.092514243E-2,1.939777248E-2,-1.645231068E-2,4.004143527E-2
1.904820167E0,2.388067283E-2,5.861710352E-3,-2.513425648E-2,3.516215340E-2
1.914770167E0,1.607134631E-2,-1.015768253E-2,-1.929639637E-2,2.708906790E-2
1.924721167E0,1.660444792E-2,-1.816760510E-2,-1.031682730E-2,2.668719714E-2
1.934671167E0,2.502187574E-2,-3.988527866E-2,-1.974780142E-2,5.105786306E-2
1.944622167E0,2.406412922E-2,-4.987518721E-2,-2.678200185E-2,6.151335008E-2
1.954568250E0,2.930251268E-2,-5.334710398E-2,-3.067390859E-2,6.815746049E-2
1.964519250E0,2.923558034E-2,-4.838911279E-2,-1.151433706E-2,5.769580012E-2
1.974469250E0,2.515717939E-2,-3.155943742E-2,-1.435842276E-2,4.283743771E-2
1.984420250E0,3.309905042E-2,-2.786198258E-2,-2.318947256E-2,4.908756308E-2
1.994370250E0,3.430828659E-2,-1.812282822E-2,-1.750188589E-2,4.256537843E-2
2.004321250E0,2.254109400E-2,1.155131157E-3,-1.031741202E-2,2.481701508E-2
2.014271250E0,1.592734035E-2,1.771989567E-3,-2.603765130E-2,3.057416234E-2
2.024222250E0,3.243736031E-2,1.124698683E-2,-2.139847040E-2,4.045456207E-2
2.034173250E0,2.865489244E-2,1.422258006E-2,-2.558975458E-2,4.096608577E-2
2.044123250E0,1.778166602E-2,2.588202400E-2,-1.885434687E-2,3.662721951E-2
2.054074250E0,1.761839623E-2,2.110851703E-2,-1.840528071E-2,3.308673049E-2
2.064024250E0,1.731033476E-2,1.769467955E-2,-1.346672237E-2,2.817981521E-2
2.073975250E0,2.165566110E-2,3.696943210E-3,-1.107228756E-2,2.460143488E-2
2.083925250E0,2.302339336E-2,-2.488032744E-2,-1.795855343E-2,3.836166024E-2
2.093876250E0,2.248083113E-2,-1.983705826E-2,-1.571380734E-2,3.384996883E-2
2.103826250E0,2.151475233E-2,-2.316730339E-2,-1.556587279E-2,3.524067125E-2
2.113777250E0,2.687902452E-2,-3.195972959E-2,-1.870933592E-2,4.575964953E-2
2.123727250E0,2.994083677E-2,-3.708105910E-2,-6.134898663E-3,4.805305018E-2
2.133678250E0,2.533580726E-2,-3.196187204E-2,-1.511563718E-2,4.349651574E-2
2.143628250E0,2.788757786E-2,-3.234866993E-2,-1.661193967E-2,4.582695696E-2
2.153579250E0,1.915133975E-2,-2.997553177E-2,-2.858645260E-2,4.563432471E-2
2.163529250E0,2.896212707E-2,-2.152080512E-2,-1.885727048E-2,4.071297714E-2
2.173480250E0,2.146763200E-2,-1.314422559E-2,-1.376843870E-2,2.869145856E-2
2.183430250E0,2.430236672E-2,-2.218141258E-3,-2.245213866E-2,3.316057462E-2
2.193381250E0,2.577429819E-2,-2.568741222E-3,-1.287089109E-2,2.892356680E-2
2.203331250E0,2.155744158E-2,6.020649550E-3,-1.287147582E-2,2.581949647E-2
2.213282250E0,1.972280001E-2,1.321079705E-2,-2.245213866E-2,3.267434053E-2
2.223232250E0,2.603585602E-2,1.586120743E-2,-2.320116699E-2,3.831106693E-2
2.233183250E0,2.281128561E-2,2.297944331E-2,-1.392105103E-2,3.524493194E-2
2.243133250E0,1.686049202E-2,1.021424521E-2,-4.641519785E-3,2.025217771E-2
2.253084250E0,1.491773177E-2,5.949464268E-3,-1.901280642E-2,2.488818302E-2
2.263034250E0,2.252932648E-2,-2.285978096E-3,-1.991152346E-2,3.015402152E-2
2.272985250E0,2.166017442E-2,-1.706138499E-2,-2.949160159E-2,4.037336470E-2
2.282936250E0,2.047241305E-2,-1.897563091E-2,-2.050969362E-2,3.463873262E-2
2.292886250E0,1.944559174E-2,-3.727961318E-2,-1.736623049E-2,4.549160976E-2
2.302837250E0,2.637590816E-2,-2.977601381E-2,-1.826436281E-2,4.377084050E-2
2.312787250E0,3.267487147E-2,-3.944856474E-2,-2.320350587E-2,5.623379029E-2
2.322738250E0,3.161313131E-2,-4.654824941E-2,-2.275443971E-2,6.069509141E-2
2.332688250E0,2.704378353E-2,-2.640898604E-2,-2.559911013E-2,4.565211069E-2
2.342639250E0,2.805687759E-2,-1.860257856E-2,-1.572023928E-2,3.715333407E-2
2.352589250E0,2.799129284E-2,-1.771094212E-3,-2.036000490E-2,3.465803009E-2
2.362540250E0,2.405846473E-2,-2.074299753E-3,-1.691774905E-2,2.948427848E-2
2.372490250E0,1.561552387E-2,1.692403480E-4,-2.110844851E-2,2.625718619E-2
2.382441250E0,1.900809667E-2,1.150870455E-2,-7.036539316E-3,2.330817249E-2
2.392391250E0,1.824615879E-2,2.376872149E-2,-1.257502198E-2,3.249623993E-2
2.402342250E0,1.760010084E-2,1.482180546E-2,-1.527000368E-2,2.761562020E-2
2.412292250E0,1.810899133E-2,1.470011942E-2,-1.437245607E-2,2.739701757E-2
2.422243250E0,1.719796315E-2,1.540580069E-2,-1.557113528E-2,2.784903743E-2
2.432193250E0,1.700880573E-2,1.870149700E-3,-1.482269168E-2,2.263866429E-2
2.442144250E0,2.095824359E-2,-1.535138504E-2,-1.527234256E-2,3.013565072E-2
2.452094250E0,2.703194748E-2,-2.114730508E-2,-1.662012577E-2,3.813349286E-2
2.462045250E0,1.851668387E-2,-3.946282646E-2,-1.242884159E-2,4.532833945E-2
2.471995250E0,3.042171087E-2,-4.804495390E-2,8.928698301E-4,5.687350265E-2
2.481946250E0,2.853899879E-2,-4.752121239E-2,-3.473304570E-2,6.541501772E-2
2.491896250E0,2.999918102E-2,-4.310457287E-2,-5.544329882E-3,5.280809273E-2
2.501847250E0,3.067454356E-2,-1.611070081E-2,-2.590199590E-2,4.325963124E-2
2.511798250E0,2.263829939E-2,-1.810899133E-2,-2.500503302E-2,3.828419834E-2
2.521748250E0,2.303183071E-2,-1.566652256E-2,-1.587343633E-2,3.206042944E-2
2.531699250E0,1.334541549E-2,4.400619068E-3,-2.590141118E-2,2.946775634E-2
2.541649250E0,1.542537516E-2,7.794877505E-3,-2.545234501E-2,3.076563311E-2
2.551600250E0,1.105810806E-2,1.034484825E-2,-1.841814458E-2,2.384377674E-2
2.561550250E0,1.237776525E-2,2.337724584E-2,-2.724977911E-2,3.797703460E-2
2.571501250E0,1.415096080E-2,2.061573379E-2,-3.233978033E-2,4.087932929E-2
2.581451250E0,1.345689174E-2,1.104031060E-2,-1.991561651E-2,2.645010727E-2
2.591402250E0,2.091601572E-2,6.359852012E-4,-1.183301032E-2,2.403964068E-2
2.601352250E0,1.937508254E-2,-7.815164602E-3,-1.572433233E-2,2.614814044E-2
2.611303250E0,2.478960880E-2,-1.817609270E-2,-2.290822148E-2,3.833642735E-2
2.621253250E0,2.028385862E-2,-2.445960657E-2,-2.290822148E-2,3.917261653E-2
2.631204250E0,2.642066220E-2,-3.457279088E-2,-1.781822026E-2,4.701933893E-2
2.641154250E0,2.115664692E-2,-2.723917646E-2,-2.305732548E-2,4.148754875E-2
2.651105250E0,2.646297229E-2,-2.735874288E-2,-2.575230718E-2,4.595618608E-2
2.661055250E0,3.188288895E-2,-3.366728101E-2,-1.931569219E-2,5.023047265E-2
2.671006250E0,1.783059991E-2,-1.919756929E-2,-7.490283251E-3,2.725034501E-2
2.680956250E0,2.527116812E-2,-8.529835967E-3,-1.242942631E-2,2.942585051E-2
2.690907250E0,1.889163658E-2,6.900902186E-4,-1.766970098E-2,2.587640798E-2
2.700857250E0,1.912423699E-2,1.688100295E-3,-2.365783453E-2,3.046767562E-2
2.710808250E0,2.077515265E-2,1.289110510E-2,-2.710009038E-2,3.649934872E-2
2.720758250E0,1.531339641E-2,2.068725712E-2,-1.931744635E-2,3.218115054E-2
2.730709250E0,2.076828217E-2,1.694232563E-2,-2.066464484E-2,3.384363290E-2
2.740659250E0,1.883397755E-2,3.388740127E-3,-2.365841925E-2,3.042898407E-2
2.750610250E0,2.186176174E-2,3.597111139E-3,-2.081491828E-2,3.039961608E-2
2.760561250E0,1.659800228E-2,5.376807153E-3,-2.126398444E-2,2.750564977E-2
2.770511250E0,2.421920835E-2,-6.310374518E-3,-1.991678596E-2,3.198545360E-2
2.780462250E0,2.622040877E-2,-1.516239207E-2,-2.081433356E-2,3.675111496E-2
2.790412250E0,2.266119489E-2,-2.177672130E-2,-2.290997565E-2,3.889244565E-2
2.800363250E0,2.351923268E-2,-1.960156621E-2,-1.437888801E-2,3.382496303E-2
2.810313250E0,2.123741159E-2,-2.181319331E-2,-1.557639778E-2,3.419747390E-2
2.820264250E0,1.914112996E-2,-2.127961661E-2,-2.081491828E-2,3.539019302E-2
2.830214250E0,2.349188781E-2,-2.007503993E-2,-1.961740851E-2,3.660216849E-2
2.840165250E0,2.104512042E-2,-2.370214089E-2,-1.767145514E-2,3.629006618E-2
2.850115250E0,2.109855392E-2,-1.785362332E-2,-8.242235184E-3,2.884155481E-2
2.860066250E0,1.861237264E-2,-1.143751927E-3,-2.800114632E-2,3.364212804E-2
2.870016250E0,1.829533021E-2,-2.564191357E-3,-1.662421882E-2,2.485274304E-2
2.879967250E0,2.067422422E-2,-1.574029340E-3,-1.303227425E-2,2.448961591E-2
2.889917250E0,2.132456251E-2,3.963082884E-3,-2.066581428E-2,2.995861933E-2
2.899868250E0,1.461692907E-2,4.671194404E-3,-1.527760506E-2,2.165363454E-2
2.909818250E0,2.139045332E-2,4.786978411E-3,-2.875017464E-2,3.615299707E-2
2.919769250E0,3.010658249E-2,5.118597765E-3,-1.812286019E-2,3.551118717E-2
2.929719250E0,1.992634250E-2,-1.402710490E-3,-1.093780160E-2,2.277415697E-2
2.939670250E0,1.982855238E-2,-7.773603690E-3,-8.392508626E-3,2.289180214E-2
2.949620250E0,1.383668667E-2,-2.381200916E-3,-1.243468881E-2,1.875487940E-2
2.959574417E0,2.458271787E-2,-1.058446989E-2,-7.945196629E-3,2.791893927E-2
2.969524417E0,2.820396704E-2,-2.655086325E-2,-9.142121673E-3,3.979937794E-2
2.979475417E0,2.420088555E-2,-2.030089321E-2,-1.812402964E-2,3.641825883E-2
2.989426417E0,1.571577621E-2,-2.236416548E-2,-2.081842661E-2,3.435910950E-2
2.999376417E0,2.571915164E-2,-2.242098853E-2,-1.857192636E-2,3.884703253E-2
3.009327417E0,1.933304197E-2,-2.523744613E-2,-1.632601082E-2,3.573840831E-2
3.019277417E0,2.957182264E-2,-2.569531966E-2,-1.423036873E-2,4.168027761E-2
3.029228417E0,2.451514598E-2,-1.123837132E-2,-1.797375619E-2,3.240909262E-2
3.039178417E0,2.255895085E-2,2.478155061E-3,-1.169443130E-5,2.269466132E-2
3.049129417E0,2.167998186E-2,-2.248208737E-4,-1.752527475E-2,2.787843993E-2
3.059079417E0,1.251735382E-2,2.029340146E-3,-8.394262791E-3,1.520743291E-2
3.069030417E0,1.992638818E-2,5.701418985E-3,-9.891149998E-3,2.296523400E-2
3.078980417E0,2.513123238E-2,1.277986639E-3,-1.647803843E-2,3.007886037E-2
3.088931417E0,2.444877095E-2,1.314055737E-2,-2.022084117E-2,3.434092408E-2
3.098881417E0,2.537877973E-2,6.958894688E-3,-1.408360362E-2,2.984722042E-2
3.108832417E0,1.854396479E-2,6.507996703E-3,-1.647862315E-2,2.564717669E-2
3.118782417E0,2.122146879E-2,-2.422190811E-3,-1.782582164E-2,2.782045404E-2
3.128733417E0,1.892078586E-2,-1.051644119E-2,-9.444422722E-3,2.361755265E-2
3.138683417E0,2.175794626E-2,-1.600375158E-2,-1.228850842E-2,2.967382229E-2
3.148634417E0,2.059629180E-2,-2.104782019E-2,-7.648158073E-3,3.042552041E-2
3.158584417E0,2.337225743E-2,-2.447231056E-2,-1.632951915E-2,3.757405484E-2
3.168535417E0,3.016499070E-2,-2.074672513E-2,-1.887422740E-2,4.118967986E-2
3.178485417E0,1.541151543E-2,-1.997247155E-2,-8.993602395E-3,2.678244409E-2
3.188436417E0,2.547128908E-2,-1.126300729E-2,-9.443838000E-3,2.940795771E-2
3.198386417E0,1.924777312E-2,-1.117696186E-2,-1.109041393E-2,2.486762006E-2
3.208337417E0,1.744662970E-2,-8.220426897E-3,-6.600921750E-3,2.038461367E-2
3.218288417E0,2.591766461E-2,-5.085940151E-3,-1.438415051E-2,3.007483852E-2
3.228238417E0,1.643516646E-2,1.026676508E-2,-1.408360362E-2,2.395556413E-2
3.238189417E0,1.570263368E-2,7.842783560E-3,-1.587986827E-2,2.366964670E-2
3.248139417E0,2.443669279E-2,4.037662293E-3,-1.079103649E-2,2.701668262E-2
3.258090417E0,2.406742285E-2,5.452880342E-3,-4.654968381E-3,2.511261590E-2
3.268040417E0,2.583246885E-2,3.541731611E-3,-1.228909314E-2,2.882502593E-2
3.277991417E0,1.769916090E-2,1.477267058E-3,-2.022318006E-2,2.691504460E-2
3.287941417E0,2.047699490E-2,-6.439945162E-3,-1.498407483E-2,2.617828704E-2
3.297892417E0,1.261416178E-2,-1.026772439E-2,-1.483438611E-2,2.201368331E-2
3.307842417E0,2.570022128E-2,-1.606601072E-2,-2.381570935E-2,3.854615527E-2
3.317793417E0,2.689972732E-2,-1.924908875E-2,-3.458043337E-3,3.325779324E-2
3.327743417E0,1.909210471E-2,-2.556436031E-2,-1.678033948E-2,3.605030892E-2
3.337694417E0,2.185818032E-2,-2.672199937E-2,-1.483497083E-2,3.757554600E-2
3.347644417E0,3.202456059E-2,-2.755943486E-2,-1.782816052E-2,4.585780455E-2
3.357595417E0,2.101296073E-2,-2.268483957E-2,-1.199088514E-2,3.316515930E-2
3.367545417E0,1.784274659E-2,-5.973044992E-3,-5.853647590E-3,1.970548305E-2
3.377496417E0,2.536291916E-2,-1.204642455E-2,-2.022434950E-2,3.460373282E-2
3.387446417E0,2.054711580E-2,2.219557380E-3,-3.160069227E-2,3.775863020E-2
3.397397417E0,2.269387535E-2,4.218884865E-3,-1.693002820E-2,2.862580694E-2
3.407347417E0,2.017423703E-2,9.853197914E-4,-1.782816052E-2,2.694093545E-2
3.417298417E0,2.747282754E-2,1.187212727E-2,-1.618158460E-2,3.402274738E-2
3.427248417E0,2.443741912E-2,7.709668041E-3,-1.273815930E-2,2.861620410E-2
3.437199417E0,1.832786449E-2,1.049643732E-3,-1.378539562E-2,2.295755869E-2
3.447149417E0,2.890844689E-2,-1.490830771E-2,-1.184002697E-2,3.461419043E-2
3.457100417E0,2.269727404E-2,-1.649073785E-2,-6.150686145E-3,2.872179702E-2
3.467050417E0,2.213029512E-2,-9.220520044E-3,-1.872453868E-2,3.041999837E-2
3.477001417E0,2.813990348E-2,-1.338896811E-2,-1.408360362E-2,3.419746374E-2
3.486952417E0,2.037182724E-2,-1.595957770E-2,-1.079103649E-2,2.803865071E-2
3.496902417E0,2.521837873E-2,-1.950512370E-2,-1.663006604E-2,3.595796953E-2
3.506853417E0,1.481341379E-2,-1.543547074E-2,-7.199091911E-3,2.257250340E-2
3.516803417E0,3.128417061E-2,-1.922567704E-2,-1.318664074E-2,3.901555437E-2
3.526754417E0,2.721179048E-2,-2.024174497E-2,-1.827605724E-2,3.852562846E-2
3.536704417E0,2.054701074E-2,-1.523080906E-2,-2.216913342E-2,3.384712206E-2
3.546655417E0,2.014200426E-2,-3.641138845E-3,-1.782757580E-2,2.714370436E-2
3.556605417E0,1.757705002E-2,-7.865852653E-3,-1.737909436E-2,2.593949202E-2
3.566556417E0,2.340240714E-2,-1.767270681E-3,-2.441621840E-2,3.386661522E-2
3.576506417E0,2.176344173E-2,7.406718316E-3,-1.169267714E-2,2.579196717E-2
3.586457417E0,2.052366755E-2,-1.090793512E-3,-1.498582900E-2,2.543591616E-2
3.596407417E0,2.092931814E-2,-4.276612415E-3,-1.917711318E-2,2.870692323E-2
3.606358417E0,1.889822840E-2,-7.011565310E-3,-1.977586806E-2,2.823809558E-2
3.616308417E0,1.836799101E-2,-5.459495005E-3,-2.696034193E-2,3.307641480E-2
3.626259417E0,1.731634186E-2,-8.933595344E-3,-1.872746229E-2,2.702559278E-2
3.636209417E0,2.044073302E-2,-1.489120917E-2,-8.698318005E-3,2.674382944E-2
3.646160417E0,2.003294912E-2,-1.482067256E-2,-1.169384658E-2,2.752666768E-2
3.656110417E0,1.705888622E-2,-1.223830002E-2,-1.109626114E-2,2.374675973E-2
3.666061417E0,1.813548196E-2,-1.443879913E-2,-1.738318741E-2,2.897498629E-2
3.676011417E0,2.057014378E-2,-1.451916180E-2,-1.648505509E-2,3.009474898E-2
3.685962417E0,1.551257176E-2,-9.829306556E-3,-1.483847916E-2,2.361007442E-2
3.695912417E0,2.098594477E-2,-9.530870151E-3,-1.843159318E-2,2.951221765E-2
3.705863417E0,1.687126825E-2,-1.591752342E-2,-1.274342179E-2,2.646510993E-2
3.715814417E0,2.594460291E-2,-8.044224707E-3,-2.127626359E-2,3.450378768E-2
3.725764417E0,2.663734722E-2,-1.284808695E-2,-2.666622698E-2,3.982096517E-2
3.735715417E0,1.610358822E-2,-1.039035603E-2,-1.963202655E-2,2.743540630E-2
3.745665417E0,1.636867266E-2,3.348353226E-4,-1.603832781E-2,2.291884636E-2
3.755616417E0,2.212881505E-2,-5.426764302E-4,-1.543898821E-2,2.698779928E-2
3.765566417E0,1.705854360E-2,-6.092986003E-3,-1.034957170E-2,2.086221519E-2
3.775517417E0,1.544525569E-2,-2.949267053E-3,-7.805448174E-3,1.755503121E-2
3.785467417E0,2.429399789E-2,-6.310136975E-3,-1.214642107E-2,2.788461416E-2
3.795418417E0,1.189175656E-2,-9.212137512E-3,-5.860664248E-3,1.614387615E-2
3.805368417E0,2.498238876E-2,-3.812973895E-3,-1.304630756E-2,2.844054604E-2
3.815319417E0,1.837011062E-2,-6.042183749E-4,-1.439409077E-2,2.334557545E-2
3.825269417E0,1.426097068E-2,-8.577129892E-3,-1.574128926E-2,2.290699958E-2
3.835220417E0,9.042179966E-3,-1.657748678E-2,-8.855608106E-3,2.085655488E-2
3.845170417E0,1.910224141E-2,-1.754102569E-2,-5.861248970E-3,2.658829533E-2
3.855121417E0,2.817703787E-2,-1.689482613E-2,-1.963319600E-2,3.827326741E-2
3.865071417E0,2.540386794E-2,-2.059870834E-2,1.324394345E-3,3.273251155E-2
3.875022417E0,1.944635918E-2,-1.399983312E-2,-1.095008075E-2,2.634502764E-2
3.884972417E0,2.405612585E-2,-1.070054626E-2,-2.531961322E-2,3.652782083E-2
3.894923417E0,2.045079206E-2,-8.275404428E-3,-1.723642230E-2,2.799663316E-2
3.904873417E0,1.937843555E-2,-1.229662600E-2,-1.603891253E-2,2.799959804E-2
3.914824417E0,2.286861117E-2,4.365380458E-3,-1.154825091E-2,2.598830549E-2
3.924774417E0,2.321765339E-2,3.507735534E-3,-1.723642230E-2,2.912830052E-2
3.934725417E0,5.836969321E-3,-7.597830906E-3,-2.052957416E-2,2.265525679E-2
3.944675417E0,9.568895325E-3,-5.741764773E-3,-2.876128435E-2,3.085033384E-2
3.954622792E0,1.886928468E-2,-4.653113717E-3,-1.528929949E-2,2.472779914E-2
3.964573792E0,2.465875908E-2,-7.996583604E-3,-1.858362079E-2,3.189593564E-2
3.974523792E0,2.495718635E-2,-1.125106161E-2,-2.097805560E-2,3.448951079E-2
3.984474792E0,2.369386343E-2,-2.264416031E-2,-7.058174014E-3,3.352573610E-2
3.994424792E0,2.258534098E-2,-1.623319998E-2,-2.097864032E-2,3.483845229E-2
4.004375792E0,2.056806071E-2,-1.765984294E-2,-2.217731953E-2,3.502497217E-2
4.014325792E0,1.294650747E-2,-1.912635660E-2,-2.008226216E-2,3.060599330E-2
4.024276792E0,1.710394632E-2,-1.277169399E-2,-4.514635205E-3,2.181841145E-2
4.034226792E0,2.190950335E-2,-1.729556140E-2,-1.169852436E-2,3.026579345E-2
4.044177792E0,2.723995761E-2,-2.227371636E-2,-1.633770525E-2,3.879502989E-2
4.054127792E0,3.039263468E-2,-9.336847658E-3,-1.499109149E-2,3.515141236E-2
4.064078792E0,1.858742148E-2,-7.753777974E-3,-2.127801776E-2,2.929790692E-2
4.074028792E0,1.878037959E-2,-1.268780929E-2,-1.798486590E-2,2.893334692E-2
4.083979792E0,2.695739548E-2,4.590205899E-3,-9.303504825E-3,2.888470812E-2
4.093929792E0,2.000034632E-2,2.813565969E-3,-9.304674268E-3,2.223751267E-2
4.103880792E0,1.346582245E-2,-7.671501255E-3,-2.053132832E-2,2.572383619E-2
4.113830792E0,2.820599986E-2,-1.622127257E-3,-1.978346944E-2,3.449051157E-2
4.123781792E0,3.046443209E-2,9.805186791E-4,-1.274926901E-2,3.303917220E-2
4.133731792E0,1.913045422E-2,-7.976218848E-3,-1.948584616E-2,2.844806754E-2
4.143682792E0,1.829536219E-2,-1.698629395E-2,-2.412561178E-2,3.471742507E-2
4.153632792E0,2.256097910E-2,-1.661432880E-2,-2.053308249E-2,3.473674101E-2
4.163583792E0,1.866461843E-2,-1.291881542E-2,-1.275043845E-2,2.603531167E-2
4.173533792E0,2.161814755E-2,-1.465278895E-2,-5.715068579E-3,2.673407071E-2
4.183484792E0,1.127251815E-2,-1.699815740E-2,-9.008805156E-3,2.229721038E-2
4.193435792E0,1.680478358E-2,-7.549358401E-3,-1.634355247E-2,2.462732772E-2
4.203385792E0,1.563923707E-2,-7.449658806E-3,-6.913163066E-3,1.865140681E-2
4.213336792E0,2.040569998E-2,-8.475274136E-3,-1.275102317E-2,2.551100655E-2
4.223286792E0,2.181325726E-2,-7.714181361E-3,-1.200316429E-2,2.606535516E-2
4.233237792E0,2.217962644E-2,3.532540519E-5,-1.334977806E-2,2.588732607E-2
4.243187792E0,1.239247922E-2,-1.023783507E-3,-1.933674216E-2,2.298980799E-2
4.253138792E0,1.522657896E-2,-3.027085271E-3,-2.307896018E-2,2.781457091E-2
4.263088792E0,1.849476138E-2,-5.502773537E-3,-2.143296897E-2,2.883936328E-2
4.273039792E0,2.303094906E-2,1.075357776E-3,-1.993666649E-2,3.048034907E-2
4.282989792E0,2.201428728E-2,7.453464065E-4,-2.203230858E-2,3.115456639E-2
4.292940792E0,1.517651218E-2,-1.861825183E-2,-1.155409813E-2,2.665451194E-2
4.302890792E0,1.317929061E-2,-1.004982424E-2,-1.469814599E-2,2.215238506E-2
4.312841792E0,2.234091823E-2,-1.757090131E-2,-1.305215478E-2,3.127637997E-2
4.322791792E0,2.189680392E-2,-1.321166500E-2,-2.607565820E-2,3.652339065E-2
4.332742792E0,1.686729397E-2,-1.309987354E-2,-8.862040043E-3,2.312245762E-2
4.342692792E0,1.988064742E-2,-1.291943212E-2,-1.739429712E-2,2.940601028E-2
4.352643792E0,2.014857324E-2,-1.902349586E-2,-1.215519190E-2,3.025900012E-2
4.362593792E0,2.115902692E-2,-1.874815595E-2,-2.622651637E-2,3.856200115E-2
4.372544792E0,1.558690449E-2,-3.561141626E-3,-1.320242822E-2,2.073493266E-2
4.382494792E0,1.323658418E-2,-1.493479377E-3,-1.933908105E-2,2.348271060E-2
4.392445792E0,1.750219652E-2,-8.577696341E-3,-2.248371363E-2,2.975602689E-2
4.402395792E0,1.976509639E-2,2.224038723E-3,-1.724519312E-2,2.632493247E-2
4.412346792E0,1.754278899E-2,1.475042375E-3,-1.933908105E-2,2.615196458E-2
4.422297792E0,2.089874817E-2,-5.782613056E-3,-1.649441063E-2,2.724448331E-2
4.432247792E0,2.061710880E-2,-1.217968168E-2,-1.469931543E-2,2.809768131E-2
4.442198792E0,1.895289986E-2,-2.004530593E-3,-2.203406274E-2,2.913297920E-2
4.452148792E0,1.560654291E-2,-1.066254849E-2,-1.230488062E-2,2.255358528E-2
4.462099792E0,1.589040239E-2,-3.438089713E-3,-2.188495874E-2,2.726310269E-2
4.472049792E0,1.759587988E-2,-1.311277853E-2,-2.038865626E-2,2.995425268E-2
4.482000792E0,2.085931601E-2,-1.675260175E-2,-1.574889064E-2,3.104493978E-2
4.491950792E0,2.209962465E-2,-1.180450057E-2,-8.863794208E-3,2.657642736E-2
4.501901792E0,2.068339704E-2,-8.625497329E-3,-9.463133812E-3,2.432597416E-2
4.511851792E0,1.438733450E-2,-1.588262286E-2,-1.260659695E-2,2.486321357E-2
4.521802792E0,1.714933076E-2,-1.592956960E-2,-1.350531399E-2,2.702303165E-2
4.531752792E0,1.884922142E-2,-1.266326012E-2,-1.739663601E-2,2.860584293E-2
4.541703792E0,1.587159080E-2,-1.034269209E-2,-1.125998318E-2,2.203782874E-2
4.551653792E0,1.283089705E-2,4.268339518E-3,-1.081091702E-2,1.731261298E-2
4.561604792E0,1.982427661E-2,4.662510375E-3,-1.679846585E-2,2.639942047E-2
4.571554792E0,1.858827115E-2,-6.149672018E-4,-1.694698513E-2,2.516152447E-2
4.581505792E0,1.139911037E-2,-1.327779335E-3,-1.574947536E-2,1.948714164E-2
4.591455792E0,1.580518836E-2,5.285544908E-3,-1.934083521E-2,2.553054780E-2
4.601406792E0,1.582742605E-2,2.107537519E-3,-3.772623539E-3,1.640676136E-2
4.611357792E0,2.137474350E-2,-5.175370574E-3,-1.065830469E-2,2.443897664E-2
4.621307792E0,1.939199835E-2,-8.218330122E-3,-1.769425929E-2,2.750776912E-2
4.631258792E0,1.057332363E-2,-4.774868279E-3,-2.203523219E-2,2.490273072E-2
4.641208792E0,1.001228329E-2,-7.360899900E-3,-1.065947413E-2,1.637232582E-2
4.651159792E0,1.994121179E-2,-1.739182576E-2,-3.922896981E-3,2.674914300E-2
4.661109792E0,1.832853600E-2,-8.437107350E-3,-1.814391017E-2,2.713524440E-2
4.671060792E0,2.122899251E-2,-7.266503912E-3,-1.754574001E-2,2.848377072E-2
4.681010792E0,1.965855829E-2,-1.180777593E-2,-1.425375760E-2,2.700096465E-2
4.690961792E0,1.710834087E-2,-1.064035191E-2,-1.874441922E-2,2.751846049E-2
4.700911792E0,2.079293184E-2,-1.053821750E-2,-1.230780423E-2,2.636061622E-2
4.710862792E0,2.261976646E-2,-1.039200970E-2,-1.155936062E-2,2.744570127E-2
4.720812792E0,2.021861192E-2,-1.612194757E-2,-1.380410671E-2,2.931318514E-2
4.730763792E0,2.581599158E-2,-9.999474236E-3,-8.864963651E-3,2.906961449E-2
4.740713792E0,1.137954504E-2,-4.838200933E-3,-1.859414577E-2,2.233034909E-2
4.750664792E0,1.262232048E-2,-3.692480139E-3,-1.036068141E-2,1.674219529E-2
4.760614792E0,1.803601077E-2,-3.142375918E-4,-1.290655911E-2,2.218052519E-2
4.770565792E0,1.630356757E-2,9.793743608E-3,-9.464303255E-3,2.124374650E-2
4.780515792E0,7.287535616E-3,-2.264402783E-3,-1.679963529E-2,1.845165145E-2
4.790466792E0,9.819197268E-3,-9.935186841E-3,-1.979340971E-2,2.422609420E-2
4.800416792E0,1.866513006E-2,-1.513299154E-2,-1.485309720E-2,2.824905325E-2
4.810367792E0,1.504782319E-2,-1.323493052E-2,-1.335620999E-2,2.408295484E-2
4.820317792E0,2.087732360E-2,-1.691174651E-2,-1.410465360E-2,3.034486883E-2
4.830268792E0,1.812972154E-2,-1.452424614E-2,-9.613991976E-3,2.514098985E-2
4.840219792E0,1.778772337E-2,-1.438954548E-2,-2.383500516E-2,3.303891029E-2
4.850169792E0,1.236626725E-2,-1.765373077E-2,-2.248780668E-2,3.114932142E-2
4.860120792E0,1.814761950E-2,-1.518554339E-2,-1.979399443E-2,3.085026802E-2
4.870070792E0,2.028425148E-2,-8.082967079E-3,-2.039333403E-2,2.987763859E-2
4.880021792E0,1.308068736E-2,2.597858529E-3,-5.872943401E-3,1.457205253E-2
4.889971792E0,1.285851144E-2,-2.031108015E-3,-8.717613816E-3,1.566727503E-2
4.899922792E0,1.237717596E-2,-4.805821977E-3,-1.635232329E-2,2.106392382E-2
4.909872792E0,1.927173757E-2,-2.137865382E-3,-3.179715872E-3,1.964894222E-2
4.919823792E0,1.506910614E-2,-3.253176087E-3,-1.261010528E-2,1.991672336E-2
4.929773792E0,1.431552338E-2,-2.081686431E-3,-1.665228546E-2,2.205824651E-2
4.939724792E0,1.366428974E-2,-3.159232344E-4,-1.395905793E-2,1.953632309E-2
4.949674792E0,1.602154448E-2,6.426364090E-4,-1.141551912E-2,1.968290999E-2
4.959626125E0,1.125589927E-2,-9.136758680E-3,-1.545652986E-2,2.119150638E-2
4.969576125E0,1.794192541E-2,-1.414725148E-2,-2.234162629E-2,3.195630888E-2
4.979527125E0,1.211303713E-2,-9.911596980E-3,-1.994602203E-2,2.535368254E-2
4.989477125E0,2.130228827E-2,-1.114664313E-2,-1.695166290E-2,2.941758001E-2
4.999428125E0,1.808367014E-2,-1.792167029E-2,-1.470691681E-2,2.940236035E-2
5.009378125E0,1.801502475E-2,-1.676708731E-2,-1.006656647E-2,2.658969902E-2
5.019329125E0,2.160563086E-2,-1.450365297E-2,-1.575590730E-2,3.042051691E-2
5.029279125E0,2.018245054E-2,-1.065559122E-2,-1.800182283E-2,2.906782688E-2
5.039230125E0,1.712393192E-2,-9.248207523E-3,-8.721706867E-3,2.132666307E-2
5.049181125E0,7.057657815E-3,-1.214204480E-2,-1.321236849E-2,1.928228376E-2
5.059131125E0,2.434278103E-2,-5.550254756E-3,-9.321046472E-3,2.665067022E-2
5.069082125E0,2.211185812E-2,1.382756867E-3,-1.237855554E-3,2.218960505E-2
5.079032125E0,1.040223319E-2,1.943692141E-3,-1.686921716E-3,1.071588071E-2
5.088983125E0,2.053748617E-2,3.380467230E-3,-7.887893915E-4,2.082878022E-2
5.098933125E0,1.342132879E-2,-5.216904078E-4,-2.584469318E-3,1.367785469E-2
5.108884125E0,2.045529168E-2,-9.624571782E-3,-1.440929353E-2,2.680819053E-2
5.118834125E0,1.776287728E-2,-7.470329627E-3,-7.673885822E-3,2.074160451E-2
5.128785125E0,2.058655710E-2,-1.159733555E-2,-1.126758456E-2,2.617752828E-2
5.138735125E0,1.509006475E-2,-1.371432454E-2,-1.875260532E-2,2.770294133E-2
5.148686125E0,1.147225081E-2,-1.307872307E-2,-1.201602817E-2,2.114356802E-2
5.158636125E0,1.318950496E-2,-1.296813760E-2,-2.054945469E-2,2.764806905E-2
5.168587125E0,1.087318530E-2,-2.001238336E-2,-1.935252964E-2,2.988715527E-2
5.178537125E0,1.572529621E-2,-2.035343592E-2,-1.441338658E-2,2.948377533E-2
5.188488125E0,1.653855711E-2,-1.258709557E-2,-1.321587682E-2,2.462962132E-2
5.198438125E0,2.448532061E-2,-1.554818039E-2,-1.246801794E-2,3.157100426E-2
5.208389125E0,2.040974735E-2,-6.901948289E-3,-6.331365108E-3,2.245619872E-2
5.218339125E0,1.283578953E-2,-6.570977611E-3,-5.283544064E-3,1.535744371E-2
5.228290125E0,1.329275857E-2,-5.563534331E-4,-1.022385657E-2,1.677898098E-2
5.238241125E0,2.945365407E-2,-2.383192624E-3,-1.621082067E-2,3.370442185E-2
5.248191125E0,1.519052722E-2,5.174648808E-4,-1.471451819E-2,2.115506873E-2
5.258142125E0,7.876555799E-3,4.975866317E-3,-2.444428504E-2,2.615955748E-2
5.268092125E0,2.160636633E-2,2.239963249E-3,-2.399521887E-2,3.236700527E-2
5.278043125E0,1.408628969E-2,1.421325649E-3,-1.486420691E-2,2.052774636E-2
5.287993125E0,1.147759097E-2,-8.267314257E-3,-1.830763221E-2,2.313553493E-2
5.297944125E0,1.920948756E-2,-1.221647346E-2,-2.220012367E-2,3.179767487E-2
5.307894125E0,1.658480950E-2,-4.513493171E-3,1.599798203E-3,1.726229652E-2
5.317845125E0,1.982758851E-2,-4.633166946E-3,-1.037529945E-2,2.285270970E-2
5.327795125E0,1.804437046E-2,-1.515195387E-2,-2.294915199E-2,3.289140600E-2
5.337746125E0,1.567069327E-2,-7.243909906E-3,-1.726156533E-2,2.441324427E-2
5.347696125E0,1.625369264E-2,-9.805310131E-3,5.513924360E-4,1.899027817E-2
5.357647125E0,1.673381757E-2,-4.472690569E-3,-6.932458878E-3,1.865702542E-2
5.367597125E0,1.810549214E-2,-8.579857070E-3,-2.609261513E-2,3.289752813E-2
5.377548125E0,1.299961663E-2,-6.890089405E-3,-2.130316079E-2,2.588992128E-2
5.387498125E0,1.633553082E-2,-1.275739116E-3,-1.830880165E-2,2.457008945E-2
5.397449125E0,2.403293798E-2,5.375372758E-4,-9.925063848E-3,2.600726719E-2
5.407399125E0,2.064463640E-2,-4.751506825E-3,-1.665988684E-2,2.695050386E-2
5.417350125E0,1.977571731E-2,-1.063090500E-2,-6.181676388E-3,2.328751295E-2
5.427300125E0,1.710846878E-2,1.854293696E-3,-1.516241491E-2,2.293549509E-2
5.437251125E0,2.231686698E-2,-6.462584850E-3,-1.186867833E-2,2.608971215E-2
5.447201125E0,2.240709226E-2,-1.187617008E-2,-2.519097447E-2,3.574501915E-2
5.457152125E0,2.652541872E-2,-4.871123498E-3,-2.289184928E-3,2.706595740E-2
5.467103125E0,1.821057756E-2,-5.247113169E-3,-1.990392208E-3,1.905568138E-2
5.477053125E0,1.788211936E-2,-1.458743718E-2,-1.755918860E-2,2.899807960E-2
5.487004125E0,1.169927810E-2,-1.535132566E-2,-2.889693975E-3,1.951631724E-2
5.496954125E0,1.245344558E-2,-1.084235037E-2,-1.472621262E-2,2.212478715E-2
5.506905125E0,-2.172550791E-2,4.165709463E-3,8.931621909E-3,2.385633458E-2
5.516855125E0,-3.154599157E-1,1.134206439E-1,7.764535207E-1,8.457300223E-1
5.526806125E0,-1.973418107E-1,7.410958918E-2,5.726868260E-1,6.102509501E-1
5.536756125E0,1.462436691E-1,-5.742246254E-2,-5.364329195E-1,5.589676441E-1
5.546707125E0,2.277838406E-1,-1.021571158E-1,-7.468356192E-1,7.874547584E-1
5.556657125E0,2.996707341E-1,-1.084772067E-1,-7.707314354E-1,8.340244593E-1
5.566608125E0,2.194488905E-1,-8.650040103E-2,-4.929845989E-1,5.465107041E-1
5.576558125E0,5.147692687E-2,-1.922940236E-2,3.985871494E-2,6.788491049E-2
5.586509125E0,-2.303857602E-1,9.058719364E-2,7.795215547E-1,8.178859899E-1
5.596459125E0,-3.554647014E-1,1.290506990E-1,9.804792470E-1,1.050880008E0
5.606410125E0,6.752928229E-3,-2.432938953E-2,1.827839613E-2,3.117083572E-2
5.616360125E0,3.282294307E-1,-1.335804090E-1,-9.740835625E-1,1.036540916E0
5.626311125E0,3.097113718E-1,-1.177933014E-1,-8.306490237E-1,8.943009539E-1
5.636261125E0,-7.288363363E-2,5.868973690E-2,4.334774852E-1,4.434627825E-1
5.646212125E0,-5.533528613E-1,2.016783799E-1,1.370918301E0,1.492075919E0
5.656162125E0,2.957709702E-1,-8.149800754E-2,-6.053710073E-1,6.786725636E-1
5.666113125E0,8.235902649E-1,6.388701169E-2,-7.571916229E-1,1.120589857E0
5.676063125E0,1.019900590E0,3.118794828E-1,1.625309604E-1,1.078833786E0
5.686014125E0,-3.444250486E-1,1.098592875E-1,1.005380200E0,1.068403960E0
5.695965125E0,-1.659301223E0,1.266203403E-1,-5.174312228E-1,1.742712922E0
5.705915125E0,-2.676938649E0,1.937859799E0,2.616839504E-1,3.315083652E0
5.715866125E0,-2.168465360E0,3.623326582E0,3.783546138E-1,4.239562448E0
5.725816125E0,1.762108869E-1,3.598769738E0,8.804708093E-1,3.709099992E0
5.735767125E0,1.009180890E0,9.033908897E-2,1.053879345E0,1.461940113E0
5.745717125E0,1.432016296E0,-3.265128490E0,1.182283031E0,3.756265152E0
5.755668125E0,-5.450804398E-1,-3.362270622E0,1.875041846E0,3.888156163E0
5.765618125E0,-1.930712748E0,-1.323990595E0,4.887634354E0,5.419370110E0
5.775569125E0,-2.884525037E0,1.578410403E0,5.167287968E0,6.124763590E0
5.785519125E0,-1.979847632E0,3.364983438E0,3.730489088E0,5.399949909E0
5.795470125E0,9.009921974E-1,1.557937109E0,3.083974147E0,3.570693422E0
5.805420125E0,1.958205332E0,-3.533694905E0,3.406300741E0,5.284359237E0
5.815371125E0,1.211790128E0,-6.904058366E0,1.712956443E0,7.215862874E0
5.825321125E0,-9.748302519E-2,-5.494198778E0,-1.076509239E0,5.599517416E0
5.835272125E0,-1.707049732E0,-2.020358019E0,-7.579839206E-1,2.751436886E0
5.845222125E0,-1.944517585E0,8.575457771E-1,2.304131581E0,3.134574252E0
5.855173125E0,-9.806174605E-1,2.308850430E0,2.727325568E0,3.705496682E0
5.865123125E0,4.981693981E-1,7.433797686E-1,2.481405711E0,2.637832544E0
5.875074125E0,1.147115245E0,-1.184624549E0,3.373766248E0,3.755197386E0
5.885024125E0,1.210970202E0,-1.243428681E0,3.713384228E0,4.098998187E0
5.894975125E0,6.238881160E-1,3.938421339E-1,4.736902490E0,4.794016397E0
5.904926125E0,-1.066370606E-1,2.384950041E0,5.653557624E0,6.136943211E0
5.914876125E0,-6.286681417E-1,3.458114381E0,6.008632134E0,6.961137753E0
5.924827125E0,-7.817016891E-1,2.514257707E0,5.569089332E0,6.160138418E0
5.934777125E0,-2.323432070E-1,9.339511979E-1,5.217097474E0,5.305125282E0
5.944728125E0,3.894039510E-1,-4.414273596E-1,5.041613177E0,5.075860220E0
5.954678125E0,-1.559290154E-1,-2.141835093E-3,4.940389103E0,4.942849678E0
5.964628917E0,2.449705616E-2,1.873905440E0,3.633193173E0,4.088057526E0
5.974578917E0,2.829520279E-1,2.194166504E0,3.058758030E0,3.774974064E0
5.984529917E0,3.538271521E-1,8.109202257E-1,4.248206239E0,4.339359575E0
5.994479917E0,5.552771799E-1,3.317473349E-1,4.073255793E0,4.124294097E0
6.004430917E0,4.148257443E-1,5.530068523E-1,3.704832090E0,3.768776697E0
6.014380917E0,4.392440093E-1,6.778794050E-2,3.761838934E0,3.788002465E0
6.024331917E0,9.065812585E-1,5.404347539E-2,3.102650154E0,3.232839039E0
6.034281917E0,6.495508146E-1,2.436926526E-1,2.928692565E0,3.009741270E0
6.044232917E0,-1.731671919E-1,3.634968388E-1,3.104670952E0,3.130670623E0
6.054182917E0,-4.985084635E-1,5.488641000E-1,2.477810258E0,2.586369301E0
6.064133917E0,1.193726617E-1,3.982070804E-1,1.297074400E0,1.362064870E0
6.074083917E0,3.210811365E-1,-2.154114246E-2,1.754494479E0,1.783762314E0
6.084034917E0,6.497297394E-1,-7.873275876E-2,2.072889404E0,2.173756671E0
6.093985917E0,1.010932423E0,-6.716538745E-1,2.149968570E0,2.468900189E0
6.103935917E0,5.653807300E-1,-7.820919907E-1,2.023803198E0,2.242120121E0
6.113886917E0,-3.664185463E-1,-6.694950825E-1,1.828376387E0,1.981273941E0
6.123836917E0,-1.088158354E0,-1.226295024E0,1.526116269E0,2.239847976E0
6.133787917E0,-1.540270624E0,-1.563368295E0,1.106442013E0,2.457797377E0
6.143737917E0,-6.796281610E-1,-2.056833535E0,9.360848469E-1,2.359812168E0
6.153688917E0,-4.450654972E-1,-2.869110607E0,2.989672592E-1,2.918777209E0
6.163638917E0,-3.093717948E-1,-3.471044621E0,-2.317286646E-1,3.492500514E0
6.173589917E0,-1.646070144E-1,-3.282632130E0,-1.460653766E0,3.596703851E0
6.183539917E0,-9.434383053E-1,-3.073123469E0,-2.598904340E0,4.133819960E0
6.193490917E0,-2.162233105E0,-3.120861307E0,-2.486472908E0,4.538455114E0
6.203440917E0,-2.065790300E0,-2.962623957E0,-2.342724958E0,4.304995994E0
6.213391917E0,-1.538465588E0,-2.986095266E0,-1.132818511E0,3.544985061E0
6.223341917E0,-1.371594824E0,-3.640612705E0,1.588606632E-1,3.893657656E0
6.233292917E0,-5.345083085E-1,-3.358817841E0,6.161506417E-1,3.456442975E0
6.243242917E0,-2.652760412E-1,-3.000305754E0,1.024529831E0,3.181488232E0
6.253193917E0,-7.310862900E-1,-3.111730880E0,8.173496778E-1,3.299305492E0
6.263143917E0,-1.076719593E0,-3.616561938E0,-1.072157887E-1,3.774962325E0
6.273094917E0,-9.063849382E-1,-4.099178839E0,-1.827274772E0,4.578617029E0
6.283044917E0,-7.208133169E-1,-4.138528846E0,-3.234082698E0,5.301535980E0
6.292995917E0,-7.532334964E-1,-4.120788394E0,-3.847310024E0,5.687710621E0
6.302945917E0,-1.059197534E0,-3.947507327E0,-3.774001143E0,5.563074522E0
6.312896917E0,-6.798512323E-1,-2.885869312E0,-2.351997473E0,3.784485631E0
6.322847917E0,-2.558228476E-1,-2.223653428E0,-1.098281931E0,2.493251511E0
6.332797917E0,1.189197949E-1,-3.156914070E0,-2.641397810E-1,3.170176365E0
6.342748917E0,4.771444917E-1,-4.016309760E0,1.579080348E0,4.341878130E0
6.352698917E0,5.293399546E-1,-3.685381327E0,1.832674091E0,4.149810916E0
6.362649917E0,1.242687108E0,-4.590396409E0,-1.924961499E-1,4.759523632E0
6.372599917E0,-2.607996175E0,-5.456733329E0,-2.701425326E0,6.623841896E0
6.382550917E0,-9.661275485E-1,-8.578046626E-1,-4.555398484E0,4.735069866E0
6.392500917E0,-1.575288282E0,-1.446312885E0,-4.455423961E0,4.942080210E0
6.402451917E0,-7.007126360E-1,-3.637031286E0,-2.825199772E0,4.658406221E0
6.412401917E0,4.668890601E-1,-3.224041275E0,-1.829269257E0,3.736128150E0
6.422352917E0,8.253711806E-1,-2.223037131E0,-1.085483546E0,2.607950575E0
6.432302917E0,8.602210245E-1,-2.142347310E0,-2.254915128E-1,2.319585874E0
6.442253917E0,7.592602216E-1,-1.866532978E0,1.526614086E-1,2.020823334E0
6.452203917E0,6.016838993E-1,-1.514859209E0,2.036918503E-1,1.642654044E0
6.462154917E0,1.419793130E-1,-1.095161857E0,2.261147529E-1,1.127237996E0
6.472104917E0,2.151444992E-1,-3.592529297E-1,3.445799267E-1,5.422961819E-1
6.482055917E0,1.085184607E0,-3.924428952E-1,5.296378702E-1,1.269706002E0
6.492005917E0,1.949305578E0,-5.221376467E-1,8.285316738E-1,2.181486808E0
6.501956917E0,2.347447900E0,-4.472739905E-1,8.161765802E-1,2.525214818E0
6.511906917E0,2.131603051E0,-6.599758154E-1,5.670377213E-1,2.302353453E0
6.521857917E0,1.532857377E0,-7.876930386E-1,-2.624932051E-1,1.743277013E0
6.531807917E0,1.120515676E0,-1.192427366E0,-1.328886761E0,2.107932264E0
6.541758917E0,1.194197318E0,-1.284285370E0,-1.971906821E0,2.638922631E0
6.551708917E0,1.119989573E0,-7.502907389E-1,-1.908613050E0,2.336689242E0
6.561659917E0,1.301593274E0,-3.943414861E-1,-1.341665266E0,1.910422975E0
6.571610917E0,1.590063027E0,-3.412791735E-1,1.195480782E-1,1.630663560E0
6.581560917E0,1.859556226E0,1.361167485E-1,1.161742274E0,2.196843699E0
6.591511917E0,1.729866445E0,5.046667510E-1,1.710689478E0,2.484669985E0
6.601461917E0,1.442065175E0,3.600703704E-1,1.874547172E0,2.392306364E0
6.611412917E0,1.162693543E0,2.461291873E-1,1.575754452E0,1.973686385E0
6.621362917E0,8.118820927E-1,3.324375987E-2,1.097962089E0,1.365935001E0
6.631313917E0,6.923642738E-1,-2.746904969E-1,6.260485891E-1,9.730159262E-1
6.641263917E0,8.715704700E-1,-2.962415797E-1,2.817697209E-1,9.626984644E-1
6.651214917E0,1.099252277E0,-4.219210482E-1,2.720925790E-1,1.208473132E0
6.661164917E0,1.094291645E0,-5.531553715E-1,4.480831721E-1,1.305462983E0
6.671115917E0,1.007580507E0,-4.215567666E-1,6.174886309E-1,1.254679558E0
6.681065917E0,8.577872671E-1,-3.447641140E-1,7.974935567E-1,1.220924757E0
6.691016917E0,6.817606406E-1,-2.675633258E-1,1.002035007E0,1.241153440E0
6.700966917E0,7.184962115E-1,-3.193293107E-1,1.067685791E0,1.325956622E0
6.710917917E0,8.364190561E-1,-5.529314232E-1,1.076510409E0,1.471123603E0
6.720867917E0,8.816269501E-1,-4.831741405E-1,9.246377528E-1,1.365898350E0
6.730818917E0,8.561585252E-1,-5.035861856E-1,7.989343107E-1,1.274716635E0
6.740768917E0,6.882022257E-1,-4.777379841E-1,7.307785803E-1,1.111707344E0
6.750719917E0,5.050371721E-1,-4.508595031E-1,5.897373434E-1,8.978457390E-1
6.760669917E0,3.940988266E-1,-5.613964373E-1,4.405368652E-1,8.152009412E-1
6.770620917E0,4.003274269E-1,-6.286809325E-1,2.978764246E-1,8.026407216E-1
6.780570917E0,6.137332566E-1,-8.196048027E-1,4.050588477E-1,1.101132695E0
6.790521917E0,8.246668104E-1,-7.901096928E-1,7.712413126E-1,1.378100808E0
6.800471917E0,8.636241040E-1,-5.270504773E-1,1.077105655E0,1.477763645E0
6.810422917E0,7.260340033E-1,-3.416557342E-1,1.252345539E0,1.487354485E0
6.820373917E0,5.494732337E-1,-3.099954003E-1,1.225569969E0,1.378419287E0
6.830323917E0,3.823434381E-1,-4.194412440E-1,1.046041737E0,1.190092760E0
6.840274917E0,2.988553581E-1,-6.412413365E-1,7.197302663E-1,1.009215851E0
6.850224917E0,1.451227762E-1,-8.898608530E-1,4.387124974E-1,1.002687196E0
6.860175917E0,-6.237948529E-2,-9.950873458E-1,2.399545276E-1,1.025508752E0
6.870125917E0,9.782435641E-2,-1.062795179E0,-1.433737735E-2,1.067384073E0
6.880076917E0,4.620754129E-1,-1.089449127E0,-5.183322787E-2,1.184525125E0
6.890026917E0,5.516752951E-1,-8.807064521E-1,1.576760173E-1,1.051119029E0
6.899977917E0,4.084138338E-1,-5.209243494E-1,4.748278248E-1,8.146321260E-1
6.909927917E0,3.367287972E-1,-3.156876647E-1,7.980981588E-1,9.219575129E-1
6.919878917E0,3.564144719E-1,-2.498684818E-1,8.781781161E-1,9.801338365E-1
6.929828917E0,1.849363214E-1,-2.707231611E-1,7.688772833E-1,8.358616810E-1
6.939779917E0,-6.084415264E-2,-4.207621300E-1,5.381356287E-1,6.858080897E-1
6.949729917E0,-2.259656489E-1,-6.339042503E-1,1.823243701E-1,6.972354329E-1
6.959681625E0,-2.101265649E-1,-8.599149227E-1,-1.775519093E-1,9.028463480E-1
6.969631625E0,-1.974001001E-1,-8.441783112E-1,-5.095848441E-1,1.005624450E0
6.979582625E0,-1.090556882E-1,-7.641872317E-1,-6.093746324E-1,9.834697305E-1
6.989532625E0,2.886406013E-1,-7.109927720E-1,-3.732991477E-1,8.533325097E-1
6.999483625E0,6.277341952E-1,-5.107262206E-1,7.899471402E-2,8.131000290E-1
7.009433625E0,6.292147833E-1,-4.630322367E-1,5.374865512E-1,9.482625631E-1
7.019384625E0,3.323437874E-1,-4.639075649E-1,6.930552685E-1,8.977684707E-1
7.029334625E0,-6.868899643E-2,-5.059695107E-1,5.739322829E-1,7.681937186E-1
7.039285625E0,-2.433973316E-1,-7.345342469E-1,3.638441634E-1,8.550820991E-1
7.049235625E0,-1.405289477E-1,-1.101990820E0,9.120019197E-2,1.114652245E0
7.059186625E0,-1.523314429E-1,-1.305031875E0,-1.629595613E-1,1.323959547E0
7.069136625E0,-2.659645508E-1,-1.230624302E0,-3.204624645E-1,1.299180321E0
7.079087625E0,-4.253314001E-1,-1.028014771E0,-2.482820956E-1,1.139896999E0
7.089037625E0,-5.506525440E-1,-9.622411966E-1,3.228828829E-2,1.109129784E0
7.098988625E0,-6.456872669E-1,-8.894170493E-1,1.618052844E-1,1.110925598E0
7.108938625E0,-7.487056319E-1,-9.101536149E-1,1.512802963E-1,1.188202615E0
7.118889625E0,-6.744590762E-1,-9.553344655E-1,-5.896295719E-3,1.169441641E0
7.128839625E0,-4.005894553E-1,-9.663810253E-1,-2.920708338E-1,1.086125946E0
7.138790625E0,-1.381032669E-1,-9.944997007E-1,-4.369202892E-1,1.094989272E0
7.148741625E0,3.799513422E-2,-1.031769853E0,-3.981895387E-1,1.106592775E0
7.158691625E0,1.617828457E-1,-1.085896944E0,-2.068031538E-1,1.117189960E0
7.168642625E0,8.465961532E-2,-1.037721734E0,1.936597824E-2,1.041349456E0
7.178592625E0,-1.867795099E-1,-9.665418237E-1,1.494221242E-1,9.956990778E-1
7.188543625E0,-4.065176183E-1,-9.106576449E-1,4.834594846E-2,9.984444155E-1
7.198493625E0,-5.130385020E-1,-9.954814482E-1,-1.486853385E-1,1.129734105E0
7.208444625E0,-5.408294044E-1,-1.051769085E0,-4.255194612E-1,1.256893577E0
7.218394625E0,-4.288233939E-1,-1.135915781E0,-6.073585125E-1,1.357600282E0
7.228345625E0,-3.925990889E-1,-1.125819393E0,-5.833767422E-1,1.327377781E0
7.238295625E0,-4.523864670E-1,-1.128327849E0,-3.499827540E-1,1.265015881E0
7.248246625E0,-4.969183863E-1,-1.144870207E0,-4.434994301E-2,1.248848506E0
7.258196625E0,-5.891567880E-1,-1.030862365E0,7.884740073E-2,1.189957919E0
7.268147625E0,-6.349422041E-1,-9.006191450E-1,-6.510523796E-2,1.103859203E0
7.278097625E0,-6.209642889E-1,-9.051612622E-1,-2.816861057E-1,1.133252232E0
7.288048625E0,-5.909549164E-1,-7.585294658E-1,-3.527449787E-1,1.024218572E0
7.297998625E0,-4.717283620E-1,-7.009601194E-1,-2.727515602E-1,8.878435392E-1
7.307949625E0,-4.088778835E-1,-9.157616794E-1,-7.242596109E-2,1.005507880E0
7.317899625E0,-4.461694149E-1,-1.081292846E0,5.267639637E-2,1.170912537E0
7.327850625E0,-5.786381221E-1,-1.197345459E0,2.093303204E-4,1.329833925E0
7.337800625E0,-8.062718354E-1,-1.313702711E0,-1.273897791E-1,1.546647097E0
7.347751625E0,-7.789452385E-1,-1.242356740E0,-3.668648350E-1,1.511554088E0
7.357701625E0,-5.814959487E-1,-1.003717836E0,-6.506652939E-1,1.330019683E0
7.367652625E0,-2.701695029E-1,-7.607449758E-1,-8.868050981E-1,1.199227985E0
7.377602625E0,-7.862369905E-2,-6.066714281E-1,-8.282803166E-1,1.029699078E0
7.387553625E0,-7.927299581E-2,-4.527738816E-1,-5.398933017E-1,7.090649991E-1
7.397503625E0,-2.116533643E-1,-3.618590337E-1,-1.126822410E-1,4.340926103E-1
7.407454625E0,-3.615103204E-1,-4.206779301E-1,2.760616690E-1,6.195721731E-1
7.417404625E0,-4.088356739E-1,-6.831553477E-1,4.345533363E-1,9.070195364E-1
7.427355625E0,-5.387256128E-1,-9.293798447E-1,3.218454041E-1,1.121408331E0
7.437305625E0,-5.818812437E-1,-1.150808639E0,2.328065258E-2,1.289762883E0
7.447256625E0,-6.013573323E-1,-1.175009095E0,-2.884074070E-1,1.351094315E0
7.457207625E0,-7.361871817E-1,-7.214212811E-1,-5.916119242E-1,1.188454837E0
7.467157625E0,-7.894601402E-1,-3.914096922E-1,-6.348580773E-1,1.086044952E0
7.477107625E0,-7.021620876E-1,-3.155251122E-1,-4.570090929E-1,8.952346088E-1
7.487058625E0,-5.829128753E-1,-4.201382321E-1,-1.997087270E-1,7.457795451E-1
7.497009625E0,-4.486857642E-1,-5.814886397E-1,-1.280306339E-2,7.345827874E-1
7.506959625E0,-5.909252783E-1,-4.320998812E-1,1.586006083E-2,7.322257394E-1
7.516910625E0,-9.808687446E-1,-1.535408664E-1,-4.660347819E-2,9.939065228E-1
7.526860625E0,-1.216693895E0,1.313331413E-1,-1.661726063E-1,1.234992212E0
7.536811625E0,-1.220062696E0,1.494179946E-1,-1.893224640E-1,1.243672672E0
7.546761625E0,-1.069969932E0,-1.282820642E-1,-1.498518580E-1,1.088001619E0
7.556712625E0,-8.624632855E-1,-2.942523569E-1,-1.463407512E-1,9.229534028E-1
7.566662625E0,-7.735496472E-1,-6.050529188E-1,-1.720630914E-1,9.970324963E-1
7.576613625E0,-1.194042878E0,-7.464725071E-1,-2.485253763E-1,1.429938622E0
7.586563625E0,-1.822670967E0,-5.365001625E-1,-4.490932055E-1,1.952343869E0
7.596514625E0,-2.090341004E0,-3.527631050E-1,-5.985128081E-1,2.202767555E0
7.606464625E0,-1.947639706E0,-3.425269693E-1,-5.294953443E-1,2.047190873E0
7.616415625E0,-1.624893283E0,-1.866191500E-1,-3.800305720E-1,1.679145057E0
7.626365625E0,-1.276890250E0,1.049493349E-1,-1.935486853E-1,1.295733061E0
7.636316625E0,-9.542894219E-1,1.866238278E-1,7.005490601E-2,9.748868876E-1
7.646266625E0,-6.282571556E-1,3.951723754E-2,3.075641280E-1,7.006171269E-1
7.656217625E0,-4.751679866E-1,-3.891532516E-1,3.679652810E-1,7.159771762E-1
7.666167625E0,-7.881690019E-1,-3.913061965E-1,1.128714350E-1,8.871701504E-1
7.676118625E0,-1.269795384E0,-1.772975188E-1,-2.953184505E-1,1.315685265E0
7.686068625E0,-1.487944475E0,-3.277159721E-1,-6.233795545E-1,1.646201260E0
7.696019625E0,-1.498800416E0,-5.708186406E-1,-8.206765974E-1,1.801595594E0
7.705969625E0,-1.243858305E0,-5.301787376E-1,-1.054957572E0,1.714995176E0
7.715920625E0,-7.340460044E-1,-4.582316726E-1,-1.084098048E0,1.387107919E0
7.725870625E0,4.286082163E-3,-5.682353407E-1,-8.215302908E-1,9.989103021E-1
7.735821625E0,3.943629015E-1,-3.691142589E-1,-4.809793881E-1,7.232624738E-1
7.745771625E0,3.211268178E-1,7.214996338E-2,-3.773778364E-1,5.007415319E-1
7.755722625E0,9.069616199E-3,3.167337316E-1,-3.812364140E-1,4.957254463E-1
7.765672625E0,-4.173078874E-1,4.823566997E-1,-5.129575181E-1,8.184981820E-1
7.775623625E0,-9.563925192E-1,4.481294382E-1,-7.061217490E-1,1.270478087E0
7.785573625E0,-1.571333080E0,3.521859848E-1,-7.955783013E-1,1.796125677E0
7.795524625E0,-1.649135839E0,3.454663646E-1,-8.338012576E-1,1.879952276E0
7.805474625E0,-1.338207515E0,1.361541706E-1,-5.962394106E-1,1.471339100E0
7.815425625E0,-1.019268214E0,4.210340255E-1,-4.586468250E-2,1.103757633E0
7.825375625E0,-5.928895408E-1,8.789341611E-1,4.692019263E-1,1.159393684E0
7.835326625E0,-2.514953233E-1,7.372391689E-1,8.775062710E-1,1.173366416E0
7.845276625E0,-3.243231252E-1,6.657932103E-1,8.539259121E-1,1.130334265E0
7.855227625E0,-7.324217210E-1,5.852694494E-1,4.130926296E-1,1.024513263E0
7.865177625E0,-1.437334485E0,2.783561164E-1,-1.532759875E-2,1.464120038E0
7.875128625E0,-1.991692629E0,2.131731105E-1,-2.602043125E-1,2.019898163E0
7.885078625E0,-1.905820712E0,5.537892097E-1,-3.402450934E-1,2.013604181E0
7.895029625E0,-1.389150504E0,8.366190308E-1,3.570309877E-2,1.622018877E0
7.904979625E0,-6.506032404E-1,1.027309012E0,4.917142913E-1,1.311652137E0
7.914930625E0,-1.198659474E-1,1.132931362E0,8.472156474E-1,1.419744931E0
7.924880625E0,4.267349146E-2,1.133419604E0,9.310012776E-1,1.467386931E0
7.934831625E0,-2.053238082E-1,1.087247651E0,6.555021107E-1,1.286059228E0
7.944781625E0,-8.010476406E-1,8.900666749E-1,3.229399663E-1,1.240236361E0
7.954732625E0,-1.593915026E0,8.810356504E-1,4.384827018E-3,1.821210629E0
7.964682167E0,-2.410931267E0,1.224695810E0,-1.576228076E-1,2.708747746E0
7.974633167E0,-2.824569734E0,1.602933480E0,-1.288930982E-1,3.250262044E0
7.984583167E0,-2.111613467E0,1.837119144E0,5.761144638E-2,2.799506611E0
7.994534167E0,-4.879853757E-1,1.391661299E0,3.070685765E-1,1.506367156E0
8.004484167E0,8.398233050E-1,8.317985862E-1,5.863295496E-1,1.319459894E0
8.014435167E0,1.187561898E0,7.105951613E-1,5.112781978E-1,1.475348820E0
8.024385167E0,5.842074488E-1,6.846142280E-1,4.150482309E-1,9.910903180E-1
8.034336167E0,-1.814315003E-1,4.986891425E-1,4.456876409E-1,6.929976359E-1
8.044286167E0,-7.974866863E-1,2.101851833E-1,5.675289971E-1,1.001125361E0
8.054237167E0,-1.371759716E0,1.253368217E-1,6.681753659E-1,1.530977582E0
8.064188167E0,-1.329223122E0,2.627370340E-1,5.495745367E-1,1.462154926E0
8.074138167E0,-5.680798048E-1,3.601510620E-1,7.093391794E-1,9.775405483E-1
8.084088167E0,2.604269452E-1,7.105665100E-1,3.212764335E-1,8.221590513E-1
8.094039167E0,9.003092426E-1,6.943054032E-1,1.451197064E-1,1.146157256E0
8.103990167E0,1.347562768E0,8.284674275E-1,-2.543340003E-1,1.602176481E0
8.113940167E0,1.276375110E0,2.709874552E-1,-5.294127524E-2,1.305898312E0
8.123891167E0,3.954596199E-1,7.586879253E-2,1.529824573E-1,4.307528490E-1
8.133841167E0,-8.295921394E-1,3.546219349E-1,9.129959464E-2,9.068161062E-1
8.143792167E0,-1.826155907E0,1.810303813E-1,1.444309044E-1,1.840781813E0
8.153742167E0,-2.059773661E0,2.397545528E-1,8.712351322E-3,2.073698552E0
8.163693167E0,-1.378438990E0,3.307857603E-1,2.436558151E-1,1.438360673E0
8.173643167E0,-1.875174285E-1,7.596866298E-1,1.718350500E-1,8.011328516E-1
8.183594167E0,4.299504447E-1,5.564783442E-1,6.086828703E-1,9.300647123E-1
8.193544167E0,7.272568023E-1,5.410276616E-1,8.660889977E-1,1.253683987E0
8.203495167E0,5.500955236E-1,8.344584846E-1,9.021990627E-1,1.346435738E0
8.213445167E0,5.784489647E-2,6.970348835E-1,7.568747038E-1,1.030564398E0
8.223396167E0,-7.396100686E-1,3.498775041E-1,4.194617093E-1,9.194484472E-1
8.233346167E0,-1.462882140E0,1.425796759E-1,8.426890254E-2,1.472227688E0
8.243297167E0,-1.811711530E0,3.614093828E-1,-1.136470681E-1,1.850900070E0
8.253247167E0,-1.369483833E0,3.593973559E-1,-1.110169905E-1,1.420203225E0
8.263198167E0,-4.517028178E-1,3.234089130E-1,7.675756931E-2,5.608212595E-1
8.273148167E0,2.836206570E-1,4.381459022E-1,3.639470744E-1,6.362939428E-1
8.283099167E0,5.940570836E-1,5.259810215E-1,6.138868922E-1,1.003203354E0
8.293049167E0,4.634085050E-1,6.996094126E-1,7.046216458E-1,1.095761122E0
8.303000167E0,-7.553009257E-2,8.665339708E-1,6.102165949E-1,1.062520687E0
8.312950167E0,-6.267150986E-1,7.128972101E-1,5.233947980E-1,1.083944815E0
8.322901167E0,-8.324002647E-1,5.363259155E-1,3.844941902E-1,1.062248309E0
8.332851167E0,-7.669063331E-1,6.010212636E-1,3.392577910E-1,1.031730455E0
8.342802167E0,-1.595643756E-1,7.635586560E-1,4.426640457E-1,8.969024855E-1
8.352752167E0,6.857148202E-1,7.900219846E-1,7.360656327E-1,1.279113821E0
8.362703167E0,1.060420771E0,1.100023232E0,1.136081842E0,1.904002435E0
8.372653167E0,8.732506675E-1,1.482913531E0,1.331689916E0,2.176004895E0
8.382604167E0,4.448969512E-1,1.535775284E0,1.357050460E0,2.097170706E0
8.392554167E0,-6.018977612E-3,1.476792666E0,1.187833793E0,1.895231365E0
8.402505167E0,-2.541363645E-1,1.178090578E0,9.620470691E-1,1.542082120E0
8.412455167E0,-2.028027812E-1,1.000975492E0,6.628596622E-1,1.217564715E0
8.422406167E0,1.900207677E-1,8.565732390E-1,5.416462970E-1,1.031118964E0
8.432356167E0,6.803040992E-1,8.168718141E-1,6.526328820E-1,1.247406472E0
8.442307167E0,1.023660935E0,9.213539565E-1,9.252926409E-1,1.659198992E0
8.452257167E0,1.073411969E0,1.107822248E0,1.289349643E0,2.010449176E0
8.462208167E0,8.631960878E-1,1.216955266E0,1.408475552E0,2.051801888E0
8.472158167E0,4.600647748E-1,1.144531653E0,1.355363538E0,1.832654529E0
8.482109167E0,1.149208841E-1,9.082100004E-1,1.077883335E0,1.414172796E0
8.492059167E0,4.650641441E-2,5.141053265E-1,7.634171534E-1,9.215600270E-1
8.502010167E0,1.485654706E-1,3.429374439E-1,4.718866754E-1,6.019591546E-1
8.511960167E0,4.489331380E-1,2.482716072E-1,3.373282099E-1,6.139788876E-1
8.521911167E0,9.044370845E-1,1.311834526E-1,3.950180089E-1,9.956177808E-1
8.531861167E0,1.322070662E0,1.205736798E-1,5.747672653E-1,1.446639643E0
8.541812167E0,1.342748463E0,3.075711447E-1,8.434316218E-1,1.615224549E0
8.551762167E0,1.019095136E0,6.316062945E-1,9.534738815E-1,1.531859605E0
8.561713167E0,5.289628091E-1,7.341752279E-1,9.461093134E-1,1.309174454E0
8.571663167E0,3.905782181E-1,5.920457876E-1,8.467996180E-1,1.104599091E0
8.581614167E0,6.423031908E-1,3.681085378E-1,7.674265891E-1,1.066302422E0
8.591564167E0,9.976171437E-1,2.167264634E-1,5.932140613E-1,1.180725729E0
8.601515167E0,1.314982375E0,2.889998031E-1,4.632304573E-1,1.423826530E0
8.611465167E0,1.617117655E0,4.975407493E-1,3.251379347E-1,1.722884495E0
8.621416167E0,1.779927236E0,7.196788108E-1,3.365166163E-1,1.949184955E0
8.631366167E0,1.613023727E0,8.273465163E-1,6.866133910E-1,1.938500903E0
8.641317167E0,1.246436343E0,1.035216202E0,1.027285624E0,1.918486876E0
8.651267167E0,7.545744091E-1,1.065475543E0,1.208818281E0,1.779287022E0
8.661218167E0,5.198873457E-1,7.473332173E-1,1.190939834E0,1.499042187E0
8.671168167E0,5.786384144E-1,3.574420470E-1,9.601484782E-1,1.176636023E0
8.681119167E0,6.791201842E-1,1.512218606E-1,6.060779357E-1,9.227148746E-1
8.691069167E0,7.960925639E-1,1.212355846E-1,3.549692595E-1,8.800367108E-1
8.701020167E0,9.852002889E-1,1.859724480E-1,3.284030199E-1,1.055013699E0
8.710970167E0,1.182238885E0,3.588407010E-1,6.178694308E-1,1.381382664E0
8.720921167E0,1.207982714E0,7.622535574E-1,9.910521823E-1,1.738515789E0
8.730871167E0,8.931940582E-1,1.040859350E0,1.277064351E0,1.874053673E0
8.740822167E0,5.278003827E-1,8.889872789E-1,1.357034672E0,1.705993766E0
8.750772167E0,4.598782486E-1,5.341846651E-1,1.097741064E0,1.304559965E0
8.760723167E0,7.613063085E-1,8.520036399E-2,5.975930411E-1,9.715780155E-1
8.770673167E0,1.195545686E0,-2.432973808E-1,7.370415330E-3,1.220072713E0
8.780624167E0,1.351271949E0,-3.916693085E-1,-2.543784392E-1,1.429702458E0
8.790574167E0,1.190552748E0,-1.455401212E-1,-3.455435479E-1,1.248197948E0
8.800525167E0,9.578630939E-1,4.074047506E-2,-3.550935128E-1,1.022376103E0
8.810475167E0,8.946409518E-1,-5.926620841E-2,1.137417930E-1,9.037876473E-1
8.820426167E0,1.045739436E0,6.819958448E-2,6.640364143E-1,1.240631497E0
8.830376167E0,1.278956217E0,1.196685308E-1,1.170925984E0,1.738136135E0
8.840327167E0,1.433173314E0,5.630868673E-4,1.422505361E0,2.019283925E0
8.850277167E0,1.344519292E0,-9.388523340E-2,1.351615473E0,1.908772106E0
8.860228167E0,9.143177095E-1,-1.013825333E-1,1.165002463E0,1.484414373E0
8.870178167E0,3.437113228E-1,-1.050604320E-1,9.882791403E-1,1.051603931E0
8.880129167E0,1.037547487E-1,-1.984960145E-1,7.698844662E-1,8.018028480E-1
8.890079167E0,3.014271829E-1,-1.858274370E-1,5.065097934E-1,6.180148491E-1
8.900030167E0,9.901677909E-1,-2.463262385E-1,5.413668001E-1,1.155070077E0
8.909980167E0,1.622431605E0,-2.831134111E-1,8.309805608E-1,1.844713042E0
8.919931167E0,1.969905319E0,-3.889743268E-2,9.804611206E-1,2.200759865E0
8.929881167E0,1.739270668E0,1.431690753E-1,9.741999221E-1,1.998655881E0
8.939832167E0,1.176491364E0,1.370879710E-1,8.723154053E-1,1.471006189E0
8.949782167E0,6.686440203E-1,4.895055056E-2,6.448598859E-1,9.302286034E-1
8.959732667E0,5.207673517E-1,-1.659919274E-1,3.037526205E-1,6.253140083E-1
8.969682667E0,8.581698212E-1,-5.778276980E-1,-9.127357453E-2,1.038590947E0
8.979633667E0,1.340330347E0,-9.289804798E-1,-5.602787420E-1,1.724355659E0
8.989583667E0,1.611373351E0,-1.212254105E0,-7.382478136E-1,2.147345786E0
8.999534667E0,1.705338106E0,-1.293912225E0,-1.415260077E-1,2.145324338E0
9.009484667E0,1.431270922E0,-8.612820017E-1,7.691348532E-1,1.838997434E0
9.019435667E0,7.182421499E-1,-3.194380689E-1,1.712632508E0,1.884415711E0
9.029385667E0,1.509166360E-1,1.020970631E-1,2.247573802E0,2.254947369E0
9.039336667E0,1.143905416E-1,2.356369436E-2,2.231303633E0,2.234358150E0
9.049286667E0,6.107539541E-1,-6.284382731E-1,1.833751733E0,2.032387875E0
9.059237667E0,1.267211500E0,-1.149452085E0,1.177450015E0,2.076885558E0
9.069187667E0,1.639841689E0,-1.488687072E0,5.536615942E-1,2.282939142E0
9.079138667E0,1.615358228E0,-1.639111372E0,3.741048574E-3,2.301321857E0
9.089088667E0,1.125630528E0,-1.499866363E0,-4.550740300E-1,1.929698310E0
9.099039667E0,5.426087487E-1,-1.355256534E0,-3.655293310E-1,1.504910701E0
9.108989667E0,4.609959438E-1,-1.154151492E0,-1.482339334E-1,1.251621439E0
9.118940667E0,7.210181156E-1,-1.001180729E0,5.674415812E-2,1.235091039E0
9.128890667E0,1.114343648E0,-1.039282356E0,2.509269740E-1,1.544290752E0
9.138841667E0,1.632745509E0,-1.202433706E0,3.064894098E-1,2.050765826E0
9.148791667E0,1.908482365E0,-1.446890005E0,3.502781846E-1,2.420431868E0
9.158742667E0,1.654253322E0,-1.582806194E0,3.760122192E-1,2.320175573E0
9.168692667E0,9.808087376E-1,-1.459962040E0,2.242838435E-1,1.773070270E0
9.178643667E0,3.840170574E-1,-1.500551072E0,3.367747709E-2,1.549276216E0
9.188593667E0,-1.053375900E-2,-1.630488483E0,-2.083494499E-2,1.630655619E0
9.198544667E0,1.346464661E-1,-1.756783079E0,4.534632683E-2,1.762518864E0
9.208494667E0,5.873642144E-1,-1.851647721E0,3.080548556E-1,1.966848697E0
9.218445667E0,8.620710835E-1,-1.827011647E0,5.841206177E-1,2.102934856E0
9.228395667E0,7.435126466E-1,-1.665665917E0,7.166230559E-1,1.959796573E0
9.238346667E0,3.204993385E-1,-1.621176208E0,6.726870044E-1,1.784219697E0
9.248296667E0,-5.064536601E-2,-1.674419199E0,4.880279142E-1,1.744825451E0
9.258247667E0,-3.721384388E-1,-1.829710137E0,2.694377969E-1,1.886510782E0
9.268197667E0,-6.244751765E-1,-1.943472396E0,9.051657937E-2,2.043342225E0
9.278148667E0,-2.446532039E-1,-2.078301002E0,-3.066806138E-2,2.092876197E0
9.288098667E0,3.949650916E-1,-2.166136706E0,8.836261131E-2,2.203622837E0
9.298049667E0,6.512353975E-1,-1.958936527E0,3.416440398E-1,2.092429332E0
9.307999667E0,4.610146549E-1,-1.666875706E0,4.784653411E-1,1.794418629E0
9.317950667E0,9.507777303E-2,-1.456301683E0,4.824560658E-1,1.537081075E0
9.327900667E0,-1.531515880E-1,-1.573857615E0,3.751971173E-1,1.625194166E0
9.337851667E0,-4.214322209E-1,-1.758629045E0,1.687424394E-1,1.816275102E0
9.347801667E0,-6.867844221E-1,-1.774111887E0,-4.842314998E-2,1.903021448E0
9.357752667E0,-5.534434931E-1,-1.856290410E0,-2.752851588E-1,1.956500883E0
9.367702667E0,-1.408236109E-1,-1.923362067E0,-3.311202210E-1,1.956730316E0
9.377653667E0,5.259991479E-1,-1.681700737E0,-9.793561796E-2,1.764761700E0
9.387603667E0,8.115932402E-1,-1.204121797E0,3.991689473E-1,1.505964388E0
9.397554667E0,7.009554416E-1,-8.395344526E-1,7.344956553E-1,1.317437094E0
9.407504667E0,3.522008952E-1,-6.997485763E-1,8.969874394E-1,1.190915617E0
9.417455667E0,-5.505738258E-3,-7.585715657E-1,7.132842958E-1,1.041266354E0
9.427405667E0,-2.930349666E-1,-1.065032324E0,2.935056674E-1,1.142938721E0
9.437356667E0,-5.448154879E-1,-1.312770665E0,-1.422639263E-1,1.428436124E0
9.447306667E0,-5.551424016E-1,-1.398496109E0,-5.379543650E-1,1.597926579E0
9.457257667E0,-2.949684946E-1,-1.299762949E0,-7.574108934E-1,1.532990998E0
9.467207667E0,1.335800801E-1,-9.896359867E-1,-7.054069269E-1,1.222629116E0
9.477158667E0,4.149548216E-1,-7.267773306E-1,-3.096194243E-1,8.923323261E-1
9.487108667E0,3.989388594E-1,-5.158548135E-1,1.054229502E-1,6.605848928E-1
9.497059667E0,1.800220290E-1,-4.811083192E-1,2.828391767E-1,5.864052741E-1
9.507009667E0,-1.540266238E-1,-6.572498435E-1,3.873698509E-1,7.783038988E-1
9.516960667E0,-3.320521210E-1,-9.166937256E-1,2.400995203E-1,1.004108449E0
9.526910667E0,-5.508843130E-1,-9.541574210E-1,-5.948136767E-2,1.103371172E0
9.536861667E0,-6.531100148E-1,-8.319599694E-1,-2.457210334E-1,1.085858604E0
9.546811667E0,-5.802987313E-1,-6.306204540E-1,-1.581005251E-1,8.714496833E-1
9.556762667E0,-5.684301992E-1,-3.824079037E-1,-2.035415769E-2,6.853925794E-1
9.566712667E0,-7.117081788E-1,-3.245122826E-1,3.152584791E-2,7.828349969E-1
9.576663667E0,-1.089654511E0,-3.759976012E-1,4.738601837E-3,1.152711414E0
9.586613667E0,-1.670141376E0,-5.170616788E-1,-1.560306108E-1,1.755297852E0
9.596564667E0,-2.288801497E0,-6.638408250E-1,-3.340338886E-1,2.406423814E0
9.606514667E0,-2.438565793E0,-7.080288184E-1,-6.447432339E-1,2.619847662E0
9.616465667E0,-2.084034051E0,-6.006107891E-1,-9.046589863E-1,2.349965772E0
9.626415667E0,-1.474806659E0,-4.970706332E-1,-9.340248728E-1,1.815085772E0
9.636366667E0,-8.026468541E-1,-2.151839679E-1,-5.652842510E-1,1.005033530E0
9.646316667E0,-3.171461065E-1,2.391037577E-1,1.170098110E-1,4.140574304E-1
9.656267667E0,-3.289093888E-1,4.968238807E-1,5.081826818E-1,7.831123754E-1
9.666217667E0,-7.950713477E-1,5.800823843E-1,5.834071112E-1,1.144114451E0
9.676168667E0,-1.283849898E0,4.316180706E-1,3.736230469E-1,1.405047651E0
9.686118667E0,-1.277501868E0,-2.325203776E-2,-2.283218941E-2,1.277917443E0
9.696069667E0,-8.516808736E-1,-4.530738437E-1,-3.975755811E-1,1.043409105E0
9.706019667E0,-4.440656233E-1,-5.990642005E-1,-6.272167897E-1,9.744091007E-1
9.715970667E0,-3.516182202E-1,-4.847552276E-1,-5.394126606E-1,8.059708567E-1
9.725920667E0,-4.311580409E-1,-1.956115830E-1,3.130833149E-2,4.744906314E-1
9.735871667E0,-5.325491989E-1,1.361892539E-1,8.115257049E-1,9.801684201E-1
9.745821667E0,-8.473205318E-1,2.631820071E-1,1.221123161E0,1.509423276E0
9.755772667E0,-1.311814938E0,1.129518342E-1,1.188309757E0,1.773611182E0
9.765722667E0,-1.529888454E0,-2.164112985E-2,7.816897023E-1,1.718157679E0
9.775673667E0,-1.259362782E0,-3.558276308E-1,2.693087379E-1,1.336089487E0
9.785623667E0,-1.096603634E0,-4.982418305E-1,-1.652855837E-1,1.215772913E0
9.795574667E0,-1.023152081E0,-4.378172886E-1,-4.607056296E-1,1.204480733E0
9.805524667E0,-7.648047707E-1,-3.889684796E-1,-6.269057178E-1,1.062654033E0
9.815475667E0,-4.804119158E-1,-3.568047005E-1,-6.121344817E-1,8.560454584E-1
9.825425667E0,-3.588181161E-1,-2.963357198E-1,-5.554960120E-1,7.246662119E-1
9.835376667E0,-5.982089721E-1,-9.324788690E-2,-4.934652400E-1,7.810615122E-1
9.845326667E0,-9.237817204E-1,1.978797179E-1,-4.032485497E-1,1.027199320E0
9.855277667E0,-8.227145713E-1,3.173383337E-1,-2.834823704E-1,9.262424835E-1
9.865227667E0,-1.453151496E-1,2.330384409E-1,-2.105804551E-1,3.460744656E-1
9.875178667E0,3.133462934E-1,2.673937565E-1,-1.326323835E-1,4.327547455E-1
9.885128667E0,4.936731085E-1,3.518801755E-1,-7.024610539E-2,6.103010006E-1
9.895079667E0,5.483330266E-1,3.864863366E-1,-9.354843378E-2,6.773419416E-1
9.905029667E0,4.823670785E-1,3.334041435E-1,-1.633981025E-1,6.087160760E-1
9.914980667E0,1.759255428E-1,3.306881118E-1,-2.261808264E-1,4.375639269E-1
9.924930667E0,-1.258477952E-1,3.510539639E-1,-1.962980461E-1,4.214373928E-1
9.934881667E0,-3.320801876E-1,3.018531525E-1,-1.293813407E-1,4.670461519E-1
9.944831667E0,-4.451906276E-1,8.597395062E-2,-1.909443355E-1,4.919816605E-1
9.954782667E0,-3.477604466E-1,-2.007583022E-2,-3.095211911E-1,4.659868399E-1
9.964732500E0,-9.971680775E-2,-9.819697022E-2,-4.564605510E-1,4.774330543E-1
9.974683500E0,-1.763103627E-2,-1.125086153E-1,-4.584521127E-1,4.723847813E-1
9.984633500E0,-7.868583485E-2,-1.205695868E-2,-3.627986813E-1,3.714292853E-1
9.994584500E0,-9.501381911E-2,1.077232540E-1,-2.492118394E-1,2.876429491E-1
1.000453450E1,-1.204501574E-1,1.771647871E-1,-6.751721442E-2,2.246200713E-1
1.001448550E1,-1.772962032E-1,1.819992650E-1,1.549827898E-1,2.976194571E-1
1.002443550E1,-1.187862591E-1,7.238443673E-2,2.271070254E-1,2.663217659E-1
1.003438650E1,9.629428625E-2,-7.061097622E-3,1.498729080E-1,1.782816233E-1
1.004433650E1,1.983352891E-1,-9.503713489E-2,3.705322087E-2,2.230288885E-1
1.005428750E1,9.952691942E-2,-3.015935361E-2,-1.112005931E-1,1.522523110E-1
1.006423750E1,2.474680535E-2,9.446118414E-2,-1.874950629E-1,2.113994284E-1
1.007418850E1,7.173415326E-2,1.252187079E-1,-1.068859327E-1,1.795831734E-1
1.008413850E1,6.536295399E-2,1.045587409E-1,2.335260074E-2,1.254997610E-1
1.009408950E1,-7.740770660E-2,1.808368385E-1,1.019275029E-1,2.215471305E-1
1.010403950E1,-2.673598427E-1,2.611729038E-1,1.343871421E-1,3.971806580E-1
1.011399050E1,-2.971743567E-1,1.587326092E-1,2.216147357E-1,4.032638474E-1
1.012394050E1,-1.880214585E-1,1.168858409E-2,2.675007606E-1,3.271778549E-1
1.013389150E1,-8.576213524E-2,-3.554405451E-2,1.825892490E-1,2.048349519E-1
1.014384150E1,7.127609700E-3,-9.406649709E-2,5.461474836E-2,1.090049514E-1
1.015379250E1,7.040873565E-2,-1.621216553E-1,-5.013812006E-2,1.837243921E-1
1.016374250E1,-3.018340029E-2,-1.109351295E-1,-1.192334980E-1,1.656329305E-1
1.017369350E1,-1.381469017E-1,-1.473498344E-4,-1.762292143E-1,2.239225851E-1
1.018364350E1,-1.553293835E-1,3.456172228E-2,-1.179845327E-1,1.980961382E-1
1.019359450E1,4.936372943E-2,9.983711421E-2,-1.719072266E-3,1.113875324E-1
1.020354450E1,3.522782978E-1,6.586537600E-2,1.269354504E-1,3.801984421E-1
1.021349550E1,4.561532798E-1,5.972813845E-2,1.937890059E-1,4.991967989E-1
1.022344550E1,4.039923886E-1,1.116484898E-1,2.090742123E-1,4.683879392E-1
1.023339650E1,3.330642010E-1,1.475954175E-1,2.336114681E-1,4.327707098E-1
1.024334650E1,1.751101486E-1,1.191498828E-1,2.201576096E-1,3.054989881E-1
1.025329750E1,-7.542681612E-2,1.002206916E-1,1.368669462E-1,1.856500810E-1
1.026324750E1,-2.380131058E-1,1.484362471E-1,-9.186565080E-3,2.806562862E-1
1.027319850E1,-1.051560339E-1,4.296124756E-2,-1.173811001E-1,1.633455935E-1
1.028314850E1,1.987816510E-1,-1.485350651E-1,-1.291258174E-1,2.797325277E-1
1.029309950E1,4.449242138E-1,-2.168451619E-1,-9.863258779E-2,5.046858108E-1
1.030304950E1,5.080750930E-1,-1.681413639E-1,-3.496576488E-2,5.363156003E-1
1.031300050E1,3.902067737E-1,-6.326570392E-2,1.166741717E-1,4.121610582E-1
1.032295050E1,2.144107468E-1,3.628665090E-2,2.151202333E-1,3.058846255E-1
1.033290150E1,5.961747989E-2,6.412465990E-2,2.517004144E-1,2.664944925E-1
1.034285150E1,-3.841664538E-2,6.222022176E-2,2.141870177E-1,2.263255911E-1
1.035280250E1,-5.586415216E-2,-1.288492441E-2,1.266600466E-1,1.390309037E-1
1.036275250E1,-1.852427155E-2,-1.575245744E-1,2.935068826E-2,1.613028303E-1
1.037270350E1,1.887311643E-1,-3.742557156E-1,-8.617626429E-2,4.279172135E-1
1.038265350E1,4.038171914E-1,-5.707946670E-1,-2.126807749E-1,7.308269207E-1
1.039260450E1,3.834421299E-1,-5.162758130E-1,-3.678822505E-1,7.408818613E-1
1.040255450E1,1.925412101E-1,-4.013177991E-1,-4.308251882E-1,6.194662511E-1
1.041250550E1,6.977467820E-2,-2.149524182E-1,-3.833469665E-1,4.450033085E-1
1.042245550E1,1.326904263E-1,-5.151923239E-2,-2.290611649E-1,2.696849973E-1
1.043240650E1,3.659450680E-1,-6.929769158E-2,-2.789356668E-2,3.734916517E-1
1.044235750E1,5.669414981E-1,-1.264840454E-1,1.144077909E-1,5.920388658E-1
1.045230750E1,5.820435405E-1,-1.975850183E-1,9.446645577E-2,6.218829743E-1
1.046225850E1,4.807899383E-1,-3.269014549E-1,-4.586206038E-2,5.832039562E-1
1.047220850E1,3.828932226E-1,-3.939590782E-1,-2.358392572E-1,5.978554428E-1
1.048215950E1,2.698985575E-1,-3.704538560E-1,-3.969733179E-1,6.063572428E-1
1.049210950E1,2.068157253E-1,-3.130581719E-1,-4.527031302E-1,5.879781351E-1
1.050205950E1,2.624323940E-1,-2.832753789E-1,-4.105365193E-1,5.636097368E-1
1.051201050E1,4.864765748E-1,-2.820790386E-1,-2.745957720E-1,6.258041865E-1
1.052196150E1,6.961531234E-1,-3.107508606E-1,-1.317096929E-1,7.736554218E-1
1.053191150E1,7.192246284E-1,-3.095966202E-1,-4.938089649E-2,7.845843525E-1
1.054186150E1,6.075113806E-1,-2.897675425E-1,-5.855868618E-2,6.756215109E-1
1.055181250E1,4.560538772E-1,-2.673475635E-1,-1.252122760E-1,5.432660238E-1
1.056176350E1,2.450186549E-1,-1.973967379E-1,-1.668678403E-1,3.561523403E-1
1.057171350E1,2.175264356E-1,-1.468604225E-1,-1.774372673E-1,3.168118017E-1
1.058166450E1,3.869505324E-1,-1.247193557E-1,-1.410313332E-1,4.303201938E-1
1.059161450E1,6.488538996E-1,-2.167223704E-1,-3.693920016E-2,6.850872013E-1
1.060156550E1,9.192947133E-1,-3.645686334E-1,9.516226530E-2,9.935134197E-1
1.061151550E1,1.008725903E0,-3.790469241E-1,1.273242903E-1,1.085088012E0
1.062146550E1,8.586735588E-1,-3.359237087E-1,6.016315302E-2,9.240046665E-1
1.063141650E1,6.311825906E-1,-3.896362317E-1,-1.058346033E-2,7.418354706E-1
1.064136750E1,4.959488449E-1,-3.904659516E-1,-1.344859600E-1,6.453800349E-1
1.065131750E1,3.733950055E-1,-3.057327801E-1,-2.530207157E-1,5.448998491E-1
1.066126850E1,3.824551930E-1,-3.295063895E-1,-2.721399597E-1,5.735037865E-1
1.067121850E1,5.587963998E-1,-3.789954686E-1,-1.408945084E-1,6.897407079E-1
1.068116950E1,7.964557490E-1,-4.263263404E-1,9.940502325E-2,9.088329150E-1
1.069111950E1,9.916558342E-1,-3.967680806E-1,3.099304962E-1,1.112143478E0
1.070107050E1,1.024800045E0,-3.843895251E-1,4.311292434E-1,1.176368507E0
1.071102050E1,7.653202759E-1,-4.123672825E-1,3.639295328E-1,9.424471365E-1
1.072097050E1,4.271130833E-1,-3.953583169E-1,1.438298106E-1,5.995171383E-1
1.073092150E1,2.591624849E-1,-4.516728508E-1,-9.064704537E-2,5.285739727E-1
1.074087150E1,2.791519956E-1,-5.239210474E-1,-2.040023375E-1,6.277229120E-1
1.075082250E1,5.469148576E-1,-5.467164177E-1,-2.213884485E-1,8.043802259E-1
1.076077350E1,8.947534376E-1,-6.282792288E-1,-1.854035139E-2,1.093463419E0
1.077072350E1,1.080481545E0,-5.934672457E-1,2.609717778E-1,1.260059526E0
1.078067450E1,9.565232775E-1,-4.779087228E-1,4.559038961E-1,1.162403497E0
1.079062450E1,6.519162326E-1,-3.973036855E-1,4.689151204E-1,8.959499891E-1
1.080057550E1,2.321002552E-1,-4.266812664E-1,3.671490097E-1,6.088725868E-1
1.081052550E1,-1.235648230E-1,-4.950100744E-1,1.690675628E-1,5.374821672E-1
1.082047550E1,-1.781496044E-1,-6.024012065E-1,1.829027329E-3,6.281941105E-1
1.083042650E1,4.436355606E-3,-6.497443575E-1,8.253929615E-3,6.498119256E-1
1.084037750E1,3.330947527E-1,-6.685460794E-1,1.560411358E-1,7.630562303E-1
1.085032750E1,6.193642715E-1,-6.789938843E-1,3.663912106E-1,9.893873432E-1
1.086027850E1,7.616283439E-1,-6.536731017E-1,4.665247786E-1,1.106802434E0
1.087022850E1,6.620645870E-1,-5.915370798E-1,3.794702625E-1,9.655274798E-1
1.088017850E1,4.370840478E-1,-6.083595192E-1,2.547795582E-1,7.912372544E-1
1.089012950E1,1.360441699E-1,-6.082957846E-1,1.113637396E-1,6.331932250E-1
1.090007950E1,-3.097993724E-2,-6.314373100E-1,-5.039125881E-3,6.322169135E-1
1.091003050E1,9.976775162E-2,-7.011951774E-1,-5.102397323E-2,7.100927594E-1
1.091998050E1,3.198717861E-1,-6.216607654E-1,3.337240318E-2,6.999241274E-1
1.092993150E1,6.242348559E-1,-7.211219037E-1,1.253502703E-1,9.619764267E-1
1.093988250E1,7.821071204E-1,-7.718359745E-1,3.097936714E-1,1.141663014E0
1.094983250E1,7.446796046E-1,-6.669456965E-1,3.754731059E-1,1.067869060E0
1.095978350E1,4.943463423E-1,-6.148756564E-1,2.927256489E-1,8.415097649E-1
1.096973413E1,1.389225349E-1,-6.232172942E-1,1.444963932E-1,6.546590518E-1
1.097968512E1,-1.866676088E-1,-6.870759058E-1,-7.125767827E-2,7.155387853E-1
1.098963513E1,-3.551560780E-1,-8.489724433E-1,-2.528371131E-1,9.543671490E-1
1.099958513E1,-2.190925393E-1,-1.003500904E0,-3.906144708E-1,1.098906398E0
1.100953612E1,4.158481300E-2,-1.085447293E0,-4.485656404E-1,1.175217536E0
1.101948613E1,4.273674372E-1,-1.188423777E0,-3.318651563E-1,1.305805683E0
1.102943713E1,7.273559126E-1,-1.264275028E0,-8.980913937E-2,1.461336256E0
1.103938712E1,5.744908382E-1,-1.044689276E0,-1.155158565E-1,1.197814393E0
1.104933813E1,-1.197639501E-1,-7.834099531E-1,-3.176225084E-1,8.537907333E-1
1.105928813E1,-8.845501924E-1,-6.507249355E-1,-5.460966128E-1,1.226414895E0
1.106923913E1,-1.221361728E0,-8.070233488E-1,-7.533371383E-1,1.646368124E0
1.107918913E1,-9.710168441E-1,-1.123723751E0,-8.643476969E-1,1.718349709E0
1.108914013E1,-3.866380353E-1,-1.399586030E0,-7.381332082E-1,1.628855629E0
1.109909013E1,3.021649187E-1,-1.707336100E0,-4.194137621E-1,1.783874463E0
1.110904113E1,7.238815702E-1,-1.812757305E0,-2.001881987E-1,1.962184723E0
1.111899113E1,6.840749685E-1,-1.484419189E0,-2.545907114E-1,1.654169073E0
1.112894213E1,3.090339353E-1,-9.860446268E-1,-3.815840310E-1,1.101540899E0
1.113889213E1,-5.557551898E-2,-6.100218827E-1,-3.131353917E-1,6.879455713E-1
1.114884313E1,-7.258547131E-2,-5.537213820E-1,-6.974734247E-2,5.627972204E-1
1.115879313E1,1.706684574E-1,-5.702210552E-1,2.143512879E-1,6.326343721E-1
1.116874413E1,3.108024257E-1,-5.876206148E-1,4.269601055E-1,7.900576349E-1
1.117869413E1,5.394077636E-1,-7.264364380E-1,5.566930101E-1,1.062345396E0
1.118864513E1,8.685639779E-1,-9.172614902E-1,4.943692195E-1,1.356529746E0
1.119859513E1,8.565966278E-1,-8.085202360E-1,2.031094311E-1,1.195289168E0
1.120854613E1,2.106539838E-1,-4.543444437E-1,-1.485648859E-1,5.223748651E-1
1.121849613E1,-6.195297477E-1,-2.059611547E-1,-4.129035087E-1,7.724806878E-1
1.122844713E1,-1.183644629E0,-1.921231341E-1,-5.733061192E-1,1.329137243E0
1.123839713E1,-1.255092853E0,-4.983429873E-1,-6.834109441E-1,1.513490773E0
1.124834813E1,-9.988579229E-1,-7.930432409E-1,-6.908415858E-1,1.450481585E0
1.125829813E1,-5.277709273E-1,-9.110435611E-1,-5.889765841E-1,1.206414497E0
1.126824913E1,-1.189443806E-1,-9.316251755E-1,-3.099153665E-1,9.889998825E-1
1.127819913E1,3.927888128E-2,-7.625488418E-1,-1.734342635E-2,7.637567421E-1
1.128815013E1,-2.519811173E-1,-3.029588610E-1,7.405103937E-2,4.009515075E-1
1.129810013E1,-9.129592551E-1,1.593196696E-1,-3.183882013E-2,9.273031161E-1
1.130805113E1,-1.456366441E0,1.236838138E-1,-1.230264406E-1,1.466777557E0
1.131800113E1,-1.570554523E0,-3.401693720E-1,-2.505608652E-1,1.626387856E0
1.132795213E1,-1.514781587E0,-1.008426014E0,-3.980954716E-1,1.862784552E0
1.133790213E1,-1.470638179E0,-1.589974880E0,-4.331694831E-1,2.208717405E0
1.134785313E1,-1.304670517E0,-1.507112818E0,-5.045158929E-1,2.056232110E0
1.135780313E1,-1.156202111E0,-1.200582477E0,-3.355315067E-1,1.700230278E0
1.136775413E1,-1.056645663E0,-1.034401100E0,-3.081044108E-3,1.478680218E0
1.137770413E1,-1.330049918E0,-7.805021328E-1,1.183336115E-1,1.546680060E0
1.138765512E1,-1.781216108E0,-5.754274160E-1,6.979572818E-2,1.873157489E0
1.139760513E1,-2.011895051E0,-7.854675883E-1,-4.463369742E-2,2.160248411E0
1.140755613E1,-2.036064956E0,-1.201228010E0,-1.440759784E-1,2.368389141E0
1.141750612E1,-2.141090743E0,-1.625611905E0,-2.941126084E-1,2.704327248E0
1.142745713E1,-2.240027240E0,-1.692370736E0,-4.164691043E-1,2.838183796E0
1.143740713E1,-2.053346109E0,-1.257755383E0,-5.432690455E-1,2.468465131E0
1.144735813E1,-1.702573104E0,-8.674782962E-1,-5.636715889E-1,1.992234783E0
1.145730813E1,-1.461583181E0,-5.298127019E-1,-5.892117883E-1,1.662557495E0
1.146725912E1,-1.322607875E0,-3.865699518E-1,-5.760726562E-1,1.493515190E0
1.147720913E1,-1.212968415E0,-5.558462602E-1,-5.986911482E-1,1.462425565E0
1.148716013E1,-1.179822231E0,-4.676936370E-1,-5.150742102E-1,1.369678530E0
1.149711012E1,-1.307861197E0,-3.554808909E-1,-1.285130292E-1,1.361390162E0
1.150706113E1,-1.330924516E0,-5.730329812E-1,3.313833457E-1,1.486452753E0
1.151701113E1,-1.120534168E0,-1.431369156E-1,4.064031225E-1,1.200520094E0
1.152696213E1,-7.947442690E-1,2.276812220E-1,1.513426057E-1,8.404533159E-1
1.153691213E1,-8.724808084E-1,2.464963925E-1,7.502942473E-2,9.097321843E-1
1.154686313E1,-1.248272953E0,3.030670345E-1,7.421783119E-2,1.286679167E0
1.155681313E1,-1.667513638E0,2.024703670E-1,1.838613108E-1,1.689793172E0
1.156676413E1,-1.962620273E0,5.580073911E-1,3.126760563E-1,2.064223074E0
1.157671413E1,-1.673811089E0,8.081009907E-1,5.518204522E-1,1.938859609E0
1.158666513E1,-8.086702171E-1,6.999000192E-1,1.124464009E0,1.551846276E0
1.159661513E1,2.138323840E-1,1.054676905E0,1.434464087E0,1.793252598E0
1.160656613E1,7.197486851E-1,1.477287925E0,1.523144421E0,2.240621947E0
1.161651613E1,4.412662688E-1,1.455859634E0,1.357467074E0,2.038862440E0
1.162646713E1,-4.114144787E-1,1.064162259E0,9.717452610E-1,1.498663417E0
1.163641713E1,-1.343637678E0,5.340992957E-1,4.758937722E-1,1.522202073E0
1.164636813E1,-2.037301788E0,-1.875833559E-1,5.624553680E-2,2.046692369E0
1.165631813E1,-2.514813777E0,-6.683244699E-1,-1.834406036E-1,2.608562130E0
1.166626913E1,-2.145354679E0,2.159224713E-1,-2.085321754E-1,2.166253651E0
1.167621913E1,-4.833400552E-1,1.122004670E0,-1.362167358E-2,1.221760058E0
1.168617013E1,7.706061588E-1,1.330255010E0,8.083851653E-1,1.736922226E0
1.169612013E1,1.162471934E0,2.025243368E0,1.445869081E0,2.746541297E0
1.170607113E1,1.004401229E0,2.301879233E0,1.758190504E0,3.065730530E0
1.171602113E1,4.753280541E-1,1.812600600E0,1.652494772E0,2.498438845E0
1.172597213E1,-2.109387432E-1,1.110010861E0,9.460087413E-1,1.473618609E0
1.173592213E1,-1.242846591E0,3.727705228E-1,1.464031702E-1,1.305779231E0
1.174587313E1,-2.400764274E0,-1.432035738E-1,-5.657865268E-1,2.470686293E0
1.175582313E1,-2.759018646E0,3.545213628E-1,-9.532060790E-1,2.940488244E0
1.176577413E1,-1.550607039E0,9.826544112E-1,-5.829615533E-1,1.926093470E0
1.177572413E1,1.084658504E-4,1.251572537E0,2.947604799E-1,1.285813971E0
1.178567513E1,7.916220751E-1,1.732833468E0,1.052853159E0,2.176666514E0
1.179562512E1,8.444671637E-1,2.081222856E0,1.426955677E0,2.660980246E0
1.180557613E1,5.124436940E-1,2.164916977E0,1.662245881E0,2.777143393E0
1.181552613E1,1.551427111E-1,1.829160499E0,1.491755106E0,2.365423997E0
1.182547713E1,-3.808994682E-1,1.102574372E0,1.012037839E0,1.544336505E0
1.183542713E1,-1.237459112E0,5.620624352E-1,3.270604992E-1,1.397922675E0
1.184537812E1,-2.338107704E0,4.078286737E-1,-2.094659758E-1,2.382634646E0
1.185532813E1,-2.842121614E0,5.386712337E-1,-4.031853998E-1,2.920681501E0
1.186527913E1,-1.829200991E0,1.054841797E0,-1.665368879E-1,2.118112843E0
1.187522912E1,-2.284055458E-1,9.662553102E-1,5.975965494E-1,1.158852904E0
1.188518013E1,6.894017820E-1,1.070199509E0,1.168844376E0,1.728235800E0
1.189513013E1,8.070116544E-1,1.292974917E0,1.304065915E0,2.005901258E0
1.190508113E1,4.563574938E-1,1.095749502E0,1.217773876E0,1.700559422E0
1.191503113E1,-1.963671894E-1,1.010397111E0,8.388900894E-1,1.327855028E0
1.192498212E1,-1.106895318E0,7.403112960E-1,5.482928270E-1,1.440105234E0
1.193493213E1,-1.791519779E0,7.099847120E-1,2.372227085E-1,1.941622008E0
1.194488213E1,-1.574360037E0,8.696885437E-1,1.574783814E-1,1.805482520E0
1.195483313E1,-3.169261050E-1,8.793323565E-1,4.144541538E-1,1.022467503E0
1.196478750E1,1.056229926E0,1.026704410E0,8.195726430E-1,1.685658008E0
1.197473750E1,1.790537593E0,1.261666585E0,1.201710405E0,2.498386548E0
1.198468850E1,1.844427433E0,1.558780569E0,1.218442798E0,2.704868254E0
1.199463850E1,1.423828879E0,1.566505326E0,1.036295013E0,2.356933382E0
1.200458850E1,6.516591744E-1,1.434084603E0,8.646277785E-1,1.796897193E0
1.201453950E1,4.697506875E-2,1.044921411E0,6.098622537E-1,1.210784613E0
1.202448950E1,-4.105045058E-1,6.962314761E-1,3.344735992E-1,8.747141282E-1
1.203444050E1,-1.524281412E-1,9.584533703E-1,1.394262725E-1,9.804625882E-1
1.204439050E1,8.095622098E-1,8.639647043E-1,4.217263359E-1,1.256852849E0
1.205434150E1,1.588327135E0,8.943228632E-1,9.164019495E-1,2.040193374E0
1.206429150E1,1.787188162E0,1.212292696E0,1.276716149E0,2.508724623E0
1.207424250E1,1.573777508E0,1.255746279E0,1.427660851E0,2.468175413E0
1.208419250E1,1.214434239E0,1.041919450E0,1.215495801E0,2.009446865E0
1.209414350E1,5.744673032E-1,7.692930204E-1,8.901789415E-1,1.309291022E0
1.210409350E1,-4.436194807E-2,4.972162288E-1,5.571735781E-1,7.480871319E-1
1.211404450E1,-3.418342204E-1,2.680322725E-1,3.568620032E-1,5.621765049E-1
1.212399450E1,-1.737315944E-1,2.852938378E-1,2.424594748E-1,4.127491220E-1
1.213394550E1,3.676926546E-1,4.109037244E-1,3.242526662E-1,6.396714395E-1
1.214389550E1,9.475110371E-1,4.424897987E-1,6.671743226E-1,1.240441842E0
1.215384650E1,1.075484515E0,6.746406323E-1,8.693739635E-1,1.538706604E0
1.216379650E1,8.008247155E-1,8.293819320E-1,7.340454197E-1,1.366754291E0
1.217374750E1,5.384997641E-1,6.434609395E-1,5.204630041E-1,9.873731388E-1
1.218369750E1,4.090046950E-1,3.304694259E-1,2.987558824E-1,6.047726509E-1
1.219364850E1,2.045160154E-1,5.758922696E-2,1.521889901E-1,2.613518860E-1
1.220359850E1,-3.422331467E-2,1.890229404E-2,1.274318790E-1,1.332944702E-1
1.221354950E1,1.739191438E-1,1.631168514E-1,2.173018295E-1,3.226066659E-1
1.222349950E1,4.864148135E-1,2.237173945E-1,3.606357962E-1,6.455284819E-1
1.223345050E1,5.488529903E-1,4.284137964E-1,4.103786445E-1,8.082008523E-1
1.224340050E1,3.752392173E-1,7.525980502E-1,4.249101448E-1,9.422085367E-1
1.225335150E1,1.328447928E-1,7.703472733E-1,5.578530246E-1,9.603554850E-1
1.226330150E1,2.418861553E-2,5.084405440E-1,6.447929353E-1,8.214954688E-1
1.227325250E1,-4.364975721E-2,2.642257351E-1,5.028552836E-1,5.697227191E-1
1.228320250E1,-1.916614965E-1,2.320075768E-1,3.283363616E-1,4.453834430E-1
1.229315350E1,1.372226031E-1,2.490498716E-1,1.383106238E-1,3.162051707E-1
1.230310350E1,6.405554581E-1,2.698185968E-1,4.858159125E-2,6.967593136E-1
1.231305450E1,9.546515107E-1,4.740688562E-1,4.110007882E-3,1.065888212E0
1.232300450E1,8.868050981E-1,8.009358126E-1,-1.584595442E-3,1.194957727E0
1.233295550E1,5.424808408E-1,9.758096606E-1,1.214542705E-1,1.123049908E0
1.234290550E1,1.747579269E-1,9.054162008E-1,2.824976993E-1,9.644292507E-1
1.235285650E1,1.350896850E-2,6.160603023E-1,4.162428170E-1,7.436201120E-1
1.236280650E1,2.423960325E-1,2.756108487E-1,5.043685430E-1,6.237826574E-1
1.237275750E1,5.659780231E-1,9.491434336E-2,5.857296252E-1,8.200116152E-1
1.238270750E1,6.877144217E-1,3.799479800E-1,5.943747336E-1,9.851867424E-1
1.239265850E1,6.973651050E-1,8.990386426E-1,6.049663800E-1,1.288632179E0
1.240260850E1,6.459047833E-1,1.228301788E0,7.958656919E-1,1.599787633E0
1.241255950E1,6.659573708E-1,1.249294462E0,9.831046468E-1,1.723580755E0
1.242250950E1,7.038461588E-1,1.081024459E0,1.014888942E0,1.641344833E0
1.243245950E1,7.530962330E-1,8.466534376E-1,9.788262391E-1,1.497356599E0
1.244241050E1,8.825752223E-1,4.807007682E-1,1.037432297E0,1.444395383E0
1.245236050E1,1.171155341E0,1.942059124E-1,1.208530598E0,1.694068173E0
1.246231150E1,1.344183077E0,1.422294277E-1,1.432560233E0,1.969590358E0
1.247226150E1,1.483595316E0,2.796822649E-1,1.481111419E0,2.114939306E0
1.248221250E1,1.514912273E0,4.465506899E-1,1.275630321E0,2.030172266E0
1.249216250E1,1.458102772E0,5.619770658E-1,9.592123389E-1,1.833567623E0
1.250211350E1,1.582853995E0,3.494623518E-1,8.096464097E-1,1.811926603E0
1.251206350E1,1.827781287E0,-3.523005903E-2,8.159584790E-1,2.001952504E0
1.252201450E1,1.795500564E0,-2.369730324E-1,8.822606421E-1,2.014537747E0
1.253196450E1,1.666179741E0,-2.944114012E-1,1.010726309E0,1.970888296E0
1.254191550E1,1.597285800E0,-3.223628461E-1,1.150219824E0,1.994553929E0
1.255186550E1,1.572972054E0,-3.157800508E-1,1.139718225E0,1.967972499E0
1.256181650E1,1.592822182E0,-2.558975458E-2,8.080659074E-1,1.786255259E0
1.257176650E1,1.661641425E0,2.733678567E-1,5.498394156E-1,1.771469896E0
1.258171750E1,1.853384490E0,4.588731122E-1,6.863830107E-1,2.028970241E0
1.259166750E1,2.120043983E0,4.035888577E-1,1.191448542E0,2.465161269E0
1.260161850E1,2.146451470E0,3.140521985E-1,1.762732036E0,2.795193540E0
1.261156850E1,1.875046670E0,2.160897017E-1,2.045936664E0,2.783586105E0
1.262151950E1,1.395509790E0,2.910743952E-3,1.967867856E0,2.412459315E0
1.263146950E1,9.041341987E-1,-1.583338290E-1,1.543081088E0,1.795446322E0
1.264142050E1,6.532795841E-1,-7.559572756E-2,9.117010805E-1,1.124138688E0
1.265137050E1,8.867779085E-1,-2.374788165E-2,3.489235309E-1,9.532505711E-1
1.266132150E1,1.293771015E0,-1.740949988E-1,7.506772399E-2,1.307588495E0
1.267127150E1,2.002514656E0,-2.867152959E-1,1.884908438E-2,2.023023948E0
1.268122250E1,2.547598238E0,-3.591868562E-1,5.858091474E-1,2.638644413E0
1.269117250E1,2.475663160E0,-4.216590929E-1,1.205237446E0,2.785552328E0
1.270112350E1,1.776507784E0,-1.666269350E-1,1.450717300E0,2.299635868E0
1.271107350E1,1.003359987E0,-1.578128421E-1,1.346010040E0,1.686232245E0
1.272102450E1,5.831372622E-1,-4.578328925E-1,9.722808659E-1,1.222697880E0
1.273097450E1,7.545910737E-1,-8.095768279E-1,4.350492167E-1,1.189155225E0
1.274092550E1,1.441211774E0,-1.126490069E0,-8.037874997E-3,1.829244615E0
1.275087550E1,2.046872803E0,-1.193631307E0,-2.053572835E-1,2.378364056E0
1.276082550E1,2.362707818E0,-1.147772180E0,-6.206877887E-2,2.627474404E0
1.277077650E1,2.394885045E0,-1.114199806E0,6.273197007E-1,2.714856460E0
1.278072650E1,2.141223182E0,-9.055319756E-1,1.399305949E0,2.713463103E0
1.279067750E1,1.462633341E0,-7.369000304E-1,1.861863684E0,2.479688352E0
1.280062750E1,7.612326336E-1,-6.508617604E-1,1.873562208E0,2.124460285E0
1.281057850E1,6.170958441E-1,-7.831368881E-1,1.446539172E0,1.756868305E0
1.282052850E1,9.390786213E-1,-1.271681111E0,8.432456803E-1,1.791676529E0
1.283047950E1,1.209309154E0,-1.647762913E0,3.280152033E-1,2.070059231E0
1.284042950E1,1.296150832E0,-1.849624584E0,-5.507682458E-2,2.259236937E0
1.285038050E1,1.111225328E0,-1.860491635E0,-3.516382469E-1,2.195427136E0
1.286033050E1,7.627722055E-1,-1.806092064E0,-5.622893071E-1,2.039597815E0
1.287028150E1,5.822458541E-1,-1.908921198E0,-3.034997284E-1,2.018688302E0
1.288023150E1,4.423615985E-1,-1.814213846E0,1.980245827E-1,1.877836361E0
1.289018250E1,3.693630579E-1,-1.751089060E0,7.818760823E-1,1.952964970E0
1.290013250E1,2.970091729E-1,-1.634161119E0,1.143313678E0,2.016398567E0
1.291008350E1,2.098077455E-1,-1.457957030E0,1.212817776E0,1.908031695E0
1.292003350E1,1.934937215E-1,-1.479650200E0,1.059043167E0,1.829857089E0
1.292998450E1,1.039018062E-1,-1.617555612E0,7.464573044E-1,1.784511207E0
1.293993450E1,-2.663604073E-1,-1.765615298E0,4.029374778E-1,1.830492791E0
1.294988550E1,-8.339221488E-1,-1.908147612E0,3.686026275E-2,2.082741495E0
1.295983550E1,-1.188390448E0,-1.980225070E0,-3.176892398E-1,2.331199184E0
1.296978667E1,-8.397550388E-1,-2.123611076E0,-6.386597908E-1,2.371244158E0
1.297973667E1,-3.657243356E-2,-2.379913834E0,-7.620582604E-1,2.499211915E0
1.298968767E1,7.789675310E-1,-2.445602624E0,-6.850018984E-1,2.656499616E0
1.299963767E1,1.323358950E0,-2.167921277E0,-8.577755727E-2,2.541361714E0
1.300958867E1,1.194002167E0,-1.573510290E0,8.528361373E-1,2.151489086E0
1.301953867E1,5.705954231E-1,-1.110921273E0,1.340209309E0,1.831907804E0
1.302948867E1,-2.109978001E-1,-7.785152489E-1,1.496597770E0,1.700120863E0
1.303943967E1,-6.099870917E-1,-8.263156521E-1,1.357703009E0,1.702421590E0
1.304938967E1,-6.530975895E-1,-1.284639711E0,9.546468329E-1,1.728637100E0
1.305934067E1,-4.692656609E-1,-1.761588321E0,3.896824247E-1,1.864203869E0
1.306929067E1,-5.574106827E-2,-2.168397240E0,-2.238482990E-1,2.180633330E0
1.307924167E1,2.012127770E-1,-2.432211916E0,-6.279810939E-1,2.520020166E0
1.308919167E1,1.846998015E-1,-2.231626691E0,-7.141105074E-1,2.350367104E0
1.309914267E1,-5.915496513E-2,-1.769758635E0,-5.404393951E-1,1.851383179E0
1.310909267E1,-3.757808156E-1,-1.475404537E0,-3.380152212E-1,1.559578167E0
1.311904367E1,-6.576787367E-1,-1.357581387E0,-2.535393272E-1,1.529657064E0
1.312899367E1,-7.588162717E-1,-1.257996288E0,-3.138692172E-1,1.502288481E0
1.313894467E1,-5.056430899E-1,-1.413398908E0,-2.985670173E-1,1.530527253E0
1.314889467E1,4.660757124E-2,-1.655042111E0,-2.422063269E-1,1.673320221E0
1.315884567E1,4.582576928E-1,-1.782834764E0,-2.474570900E-1,1.857346203E0
1.316879567E1,3.748432146E-1,-1.484542565E0,-1.040202488E-1,1.534664223E0
1.317874667E1,9.775448218E-2,-1.027369239E0,1.170752359E-1,1.038628953E0
1.318869667E1,9.179032221E-2,-7.405229652E-1,3.158952044E-1,8.103021075E-1
1.319864767E1,3.913127746E-1,-6.546490020E-1,4.180899525E-1,8.697644576E-1
1.320859767E1,6.283147506E-1,-6.531871980E-1,3.180984718E-1,9.605308841E-1
1.321854867E1,6.141580568E-1,-8.635887283E-1,1.823267090E-1,1.075276076E0
1.322849867E1,3.041119319E-1,-1.035553586E0,-6.483568132E-2,1.081230301E0
1.323844967E1,-8.314097464E-2,-1.163779517E0,-3.087364948E-1,1.206902403E0
1.324839967E1,-2.291950661E-1,-1.370150562E0,-5.016349697E-1,1.476983610E0
1.325834967E1,-3.022655274E-1,-1.302907582E0,-5.762390095E-1,1.456359850E0
1.326830067E1,-2.628579982E-1,-9.804663831E-1,-4.634614223E-1,1.115887604E0
1.327825067E1,3.225528806E-2,-7.014793521E-1,-2.382471406E-1,7.415358286E-1
1.328820167E1,4.099295052E-1,-6.533865881E-1,7.651317397E-2,7.751196672E-1
1.329815167E1,5.779004958E-1,-6.694775409E-1,3.157309341E-1,9.390714475E-1
1.330810267E1,3.323535450E-1,-7.379659778E-1,4.731800795E-1,9.375244268E-1
1.331805267E1,-2.109025636E-1,-8.984890044E-1,5.368960190E-1,1.067717059E0
1.332800367E1,-9.394209027E-1,-9.246488625E-1,3.752263534E-1,1.370504275E0
1.333795367E1,-1.678489738E0,-8.242691267E-1,4.303316832E-2,1.870454289E0
1.334790467E1,-2.057896412E0,-6.415342820E-1,-3.449062014E-1,2.182994312E0
1.335785467E1,-1.752029877E0,-4.671176863E-1,-6.177361143E-1,1.915569245E0
1.336780567E1,-1.144450888E0,-4.143325317E-1,-6.562780362E-1,1.382801556E0
1.337775567E1,-6.911337273E-1,-3.178832942E-1,-3.412528610E-1,8.337680330E-1
1.338770667E1,-4.329904121E-1,-1.243194062E-1,1.199451041E-1,4.661789782E-1
1.339765667E1,-4.947585710E-1,5.736001611E-2,4.896458387E-1,6.984477521E-1
1.340760767E1,-8.496542287E-1,1.380118310E-1,5.354652053E-1,1.013746793E0
1.341755767E1,-1.342505511E0,2.475102997E-1,2.271830392E-1,1.383905535E0
1.342750867E1,-1.754432206E0,2.748694217E-1,-2.369443993E-1,1.791571437E0
1.343745867E1,-1.928061182E0,2.189296943E-1,-7.751981235E-1,2.089565089E0
1.344740967E1,-1.866812767E0,6.006961584E-2,-1.195165032E0,2.217434942E0
1.345735967E1,-1.810857252E0,-8.168560266E-2,-1.379368113E0,2.277835138E0
1.346730967E1,-1.736934413E0,-1.189089775E-2,-1.274132849E0,2.154181298E0
1.347726067E1,-1.569250886E0,3.922955453E-2,-9.250289315E-1,1.822022455E0
1.348721067E1,-1.487751225E0,7.211488008E-2,-5.432952118E-1,1.585488553E0
1.349716167E1,-1.518454370E0,1.562463731E-1,-4.087051713E-1,1.580239387E0
1.350711167E1,-1.717053003E0,3.269125646E-1,-5.130440569E-1,1.821635815E0
1.351706267E1,-1.999057928E0,4.072264105E-1,-6.335311979E-1,2.136218090E0
1.352701267E1,-1.933733566E0,4.165872180E-1,-6.670632986E-1,2.087544935E0
1.353696367E1,-1.427396265E0,3.315774733E-1,-5.767950797E-1,1.574832144E0
1.354691367E1,-8.621444660E-1,2.101904458E-1,-2.803424887E-1,9.306261412E-1
1.355686467E1,-5.339999662E-1,1.789657295E-1,1.343335669E-2,5.633517119E-1
1.356681467E1,-5.653150219E-1,2.182210118E-1,1.086523765E-1,6.156353003E-1
1.357676567E1,-7.999711682E-1,2.238612360E-1,7.075715661E-3,8.307332837E-1
1.358671567E1,-8.531830964E-1,1.022461671E-1,-1.732705414E-1,8.765833419E-1
1.359666667E1,-6.362049104E-1,3.844602764E-2,-4.697425379E-1,7.917656452E-1
1.360661667E1,-4.281970109E-1,1.033039284E-1,-6.136535883E-1,7.553774607E-1
1.361656767E1,-2.112813900E-1,1.044435507E-1,-5.672062308E-1,6.142240546E-1
1.362651767E1,1.246810564E-1,9.017634451E-2,-3.487501975E-1,3.811874069E-1
1.363646867E1,4.888448433E-1,9.971666157E-2,-1.004042941E-1,5.089142518E-1
1.364641867E1,5.973750130E-1,1.999882239E-1,2.167399120E-1,6.662044621E-1
1.365636867E1,3.947169504E-1,4.325875390E-1,5.347348881E-1,7.930162989E-1
1.366631967E1,3.549237974E-2,5.542505550E-1,7.668559009E-1,9.468481185E-1
1.367626967E1,-3.011855467E-1,6.175045645E-1,6.964823947E-1,9.783211880E-1
1.368622067E1,-5.296157239E-1,5.372456825E-1,4.021814328E-1,8.549126524E-1
1.369617067E1,-6.799086812E-1,3.601428759E-1,1.092289120E-1,7.771162468E-1
1.370612167E1,-4.963513526E-1,2.147325629E-1,-1.915800009E-1,5.737400417E-1
1.371607167E1,-1.045821297E-1,-3.544348240E-2,-3.116642687E-1,3.306482704E-1
1.372602267E1,4.249847699E-1,-2.746635997E-1,-2.879150715E-1,5.821917520E-1
1.373597267E1,6.593622963E-1,-3.062865114E-1,-2.716844434E-1,7.761330438E-1
1.374592367E1,4.572039514E-1,-4.480195105E-2,-1.066573431E-1,4.716126131E-1
1.375587367E1,1.862043632E-1,1.765210086E-1,2.499765822E-1,3.582178429E-1
1.376582467E1,-1.151484869E-2,4.515295941E-1,5.922527425E-1,7.448321133E-1
1.377577467E1,-2.435153358E-2,5.197888201E-1,6.558815950E-1,8.372300051E-1
1.378572567E1,-9.293067545E-2,4.476768637E-1,5.981666164E-1,7.528970618E-1
1.379567567E1,-1.641607256E-1,3.821009248E-1,3.961337308E-1,5.743446642E-1
1.380562667E1,-1.927164073E-1,3.251355958E-1,2.523394785E-1,4.544534979E-1
1.381557667E1,1.673288202E-1,7.350183964E-2,1.523468649E-1,2.379307079E-1
1.382552767E1,7.249047598E-1,-3.866933280E-1,5.694139201E-2,8.235660040E-1
1.383547767E1,7.810864889E-1,-5.292186248E-1,-1.054100589E-1,9.493575388E-1
1.384542867E1,4.117695509E-1,-3.821699220E-1,-3.407792366E-1,6.570681094E-1
1.385537867E1,8.216207765E-2,-2.176947623E-1,-3.633319839E-1,4.314530647E-1
1.386532867E1,1.904211558E-2,-1.488724494E-1,-2.231630784E-1,2.689374796E-1
1.387527967E1,1.499577657E-1,-8.841107011E-2,2.646574058E-2,1.760803346E-1
1.388522967E1,4.017004263E-1,-4.368396342E-2,3.708180644E-1,5.484319083E-1
1.389518067E1,4.340813564E-1,5.083276927E-2,6.193218791E-1,7.580040794E-1
1.390513067E1,1.757667178E-1,1.278183800E-1,6.456226552E-1,6.812195609E-1
1.391508167E1,-1.894731760E-2,8.045242488E-2,4.824812089E-1,4.895096632E-1
1.392503167E1,8.265887171E-2,-1.213314790E-1,2.119475341E-1,2.578285750E-1
1.393498267E1,1.870908742E-1,-3.337204778E-1,-8.829365071E-2,3.926424853E-1
1.394493267E1,1.800762619E-1,-5.003076518E-1,-3.344858783E-1,6.281846936E-1
1.395488367E1,3.017261218E-1,-4.356286758E-1,-4.991715012E-1,7.279994391E-1
1.396483342E1,5.031534916E-1,-3.794533056E-1,-4.602132940E-1,7.803489753E-1
1.397478442E1,6.724444181E-1,-3.065373570E-1,-2.997727132E-1,7.975025556E-1
1.398473442E1,6.943780549E-1,-1.987228864E-1,-3.384832542E-2,7.230472860E-1
1.399468542E1,6.057254948E-1,-9.925823987E-2,2.069663276E-1,6.477581601E-1
1.400463542E1,3.536084662E-1,-7.972093821E-3,2.907733001E-1,4.578772911E-1
1.401458642E1,7.019553155E-2,-2.404667437E-2,2.088461709E-1,2.216356882E-1
1.402453642E1,-4.980629057E-2,-5.680160701E-2,8.582016885E-2,1.143336806E-1
1.403448742E1,1.522090168E-1,-1.592506725E-1,1.367488325E-2,2.207155724E-1
1.404443742E1,3.886873747E-1,-2.166627288E-1,2.732988596E-3,4.450034635E-1
1.405438842E1,5.526033944E-1,-2.225982374E-1,7.700315237E-2,6.007078926E-1
1.406433842E1,7.453496955E-1,-3.219172883E-1,1.810345109E-1,8.318355626E-1
1.407428842E1,8.084839833E-1,-4.857112473E-1,2.112821027E-1,9.665412013E-1
1.408423942E1,5.755640946E-1,-4.190793014E-1,6.711724659E-2,7.151267109E-1
1.409418942E1,1.868571317E-1,-2.545708126E-1,-7.241252163E-2,3.239837335E-1
1.410414042E1,-4.927404776E-2,-2.659459859E-1,-9.308007181E-2,2.860403800E-1
1.411409042E1,1.757848442E-1,-3.280703133E-1,3.009561896E-3,3.722089459E-1
1.412404142E1,8.326636818E-1,-4.929232031E-1,1.166016662E-1,9.746271286E-1
1.413399142E1,1.269179673E0,-6.356888205E-1,2.705740388E-1,1.445035511E0
1.414394242E1,1.418588019E0,-5.560246003E-1,3.439039886E-1,1.561994007E0
1.415389242E1,1.365599382E0,-3.652591896E-1,4.825104815E-1,1.493684140E0
1.416384342E1,1.178444188E0,-3.257115465E-1,5.855202949E-1,1.355600506E0
1.417379342E1,7.718655029E-1,-3.618397379E-1,5.670647281E-1,1.023848991E0
1.418374442E1,3.741846719E-1,-3.394413936E-1,3.446325517E-1,6.115604828E-1
1.419369442E1,1.375769444E-1,-4.699453998E-1,8.959571600E-2,4.977986407E-1
1.420364542E1,2.497015437E-1,-6.485024089E-1,-5.322369576E-2,6.969497809E-1
1.421359542E1,6.955928870E-1,-8.192305809E-1,-1.322803903E-1,1.082814070E0
1.422354642E1,9.994761197E-1,-9.886337739E-1,-1.007966423E-1,1.409435779E0
1.423349642E1,1.072533498E0,-1.052222829E0,-8.786143184E-2,1.505064988E0
1.424344642E1,9.160742131E-1,-8.632928592E-1,-4.864883423E-2,1.259695691E0
1.425339742E1,7.378129269E-1,-7.214019853E-1,1.141598690E-1,1.038181687E0
1.426334742E1,5.868305098E-1,-7.016261172E-1,2.604186312E-1,9.510347623E-1
1.427329842E1,4.846384294E-1,-7.766903329E-1,2.971333166E-1,9.625022017E-1
1.428324842E1,5.694237873E-1,-8.930125022E-1,1.908379344E-1,1.076166296E0
1.429319942E1,8.128901526E-1,-1.040684518E0,2.002322355E-2,1.320687547E0
1.430314942E1,1.069354367E0,-1.150620359E0,-1.522182262E-1,1.578168673E0
1.431310042E1,1.171198903E0,-1.121634541E0,-2.432885917E-1,1.639804944E0
1.432305042E1,9.538543890E-1,-8.605744886E-1,-2.898944088E-1,1.316991046E0
1.433300142E1,5.243399274E-1,-6.339077586E-1,-3.180756676E-1,8.820110749E-1
1.434295142E1,1.501711891E-1,-5.598726529E-1,-3.022296949E-1,6.537213183E-1
1.435290242E1,-1.062928788E-2,-5.769611406E-1,-3.361108196E-1,6.678080732E-1
1.436285242E1,1.336830642E-1,-7.426694781E-1,-3.629448617E-1,8.373518304E-1
1.437280342E1,3.514965250E-1,-9.129380590E-1,-2.675206228E-1,1.014185876E0
1.438275342E1,4.687649931E-1,-9.470413595E-1,-6.155012171E-2,1.058497224E0
1.439270442E1,3.846123771E-1,-7.058559930E-1,1.121612906E-1,8.116276970E-1
1.440265442E1,2.497472251E-1,-6.000231439E-1,1.725653489E-1,6.724434915E-1
1.441260542E1,2.242257368E-1,-7.101519424E-1,2.221906865E-1,7.771497047E-1
1.442255542E1,1.432162184E-1,-8.119344252E-1,1.121519442E-1,8.320615691E-1
1.443250542E1,-1.283715266E-1,-8.388976908E-1,-6.145423651E-3,8.486850715E-1
1.444245642E1,-1.647059054E-1,-8.854777801E-1,-8.905543327E-2,9.050579012E-1
1.445240642E1,8.752404749E-2,-9.234267944E-1,-2.236091981E-2,9.278348529E-1
1.446235742E1,5.106192166E-1,-8.785862517E-1,1.161619556E-1,1.022809555E0
1.447230742E1,7.795581729E-1,-6.546174270E-1,2.910895979E-1,1.058757798E0
1.448225842E1,6.464906743E-1,-3.306682312E-1,5.130387944E-1,8.891009367E-1
1.449220842E1,4.404570141E-1,-1.110982668E-1,7.166862059E-1,8.485189001E-1
1.450215942E1,3.778633746E-1,-1.390286618E-1,8.043792379E-1,8.995196813E-1
1.451210942E1,3.584323461E-1,-3.436098737E-1,6.819864893E-1,8.435917636E-1
1.452206042E1,2.986071438E-1,-6.333399940E-1,3.853478837E-1,7.992363641E-1
1.453201042E1,2.790939619E-1,-8.926716095E-1,1.303326827E-1,9.443212643E-1
1.454196142E1,2.948392712E-1,-7.899845624E-1,-6.846622665E-2,8.459866600E-1
1.455191142E1,2.433207697E-1,-5.021910399E-1,-1.166215467E-1,5.700889603E-1
1.456186242E1,2.957983607E-1,-3.767992544E-1,2.954482952E-2,4.799450440E-1
1.457181242E1,3.726336249E-1,-4.255509996E-1,2.626323871E-1,6.236387115E-1
1.458176342E1,3.358751037E-1,-5.646977752E-1,3.976200199E-1,7.679826449E-1
1.459171342E1,1.154933996E-1,-7.655578190E-1,4.417606509E-1,8.913865448E-1
1.460166342E1,-1.562192566E-1,-1.063151860E0,3.854092795E-1,1.141593906E0
1.461161442E1,-3.539485549E-1,-1.350278215E0,1.524532843E-1,1.404198291E0
1.462156442E1,-6.754134880E-1,-1.293359663E0,-2.148624076E-1,1.474831669E0
1.463151542E1,-1.019824357E0,-9.196418917E-1,-4.851458216E-1,1.456416629E0
1.464146542E1,-1.170103281E0,-6.832483184E-1,-4.331085259E-1,1.422516414E0
1.465141642E1,-8.798255691E-1,-6.716796023E-1,-1.051183194E-1,1.111888655E0
1.466136642E1,-5.067424760E-1,-7.884110767E-1,2.725036017E-1,9.760318518E-1
1.467131742E1,-3.417893796E-1,-1.084072028E0,4.979746127E-1,1.240971739E0
1.468126742E1,-4.327402244E-1,-1.244618443E0,3.901683283E-1,1.374252704E0
1.469121842E1,-9.421731140E-1,-1.167509456E0,1.426755337E-1,1.507025154E0
1.470116842E1,-1.468591800E0,-1.179205057E0,7.583802156E-3,1.883439395E0
1.471111942E1,-1.497930058E0,-1.219809292E0,-1.182627871E-1,1.935385040E0
1.472106942E1,-1.225278924E0,-1.131815128E0,-2.098775467E-1,1.681178905E0
1.473102042E1,-8.776434613E-1,-1.013772708E0,-1.094955450E-1,1.345355872E0
1.474097042E1,-5.146037651E-1,-1.139775528E0,1.890773195E-1,1.264774890E0
1.475092142E1,-2.908707293E-1,-1.275827957E0,3.722162068E-1,1.360473322E0
1.476087142E1,-4.746869800E-1,-1.282142365E0,3.383614129E-1,1.408440705E0
1.477082142E1,-1.065302027E0,-9.918345398E-1,-5.681227818E-3,1.455553654E0
1.478077242E1,-1.782630550E0,-8.266401726E-1,-3.277218924E-1,1.992111264E0
1.479072242E1,-1.918118138E0,-7.619992036E-1,-6.118029445E-1,2.152701284E0
1.480067342E1,-1.488647311E0,-8.144610071E-1,-7.807033501E-1,1.867863825E0
1.481062342E1,-8.841497312E-1,-8.285469496E-1,-7.099298944E-1,1.404354389E0
1.482057442E1,-2.280922081E-1,-7.918363756E-1,-4.178649078E-1,9.239274767E-1
1.483052442E1,3.045290577E-1,-7.706776410E-1,-6.138063468E-2,8.309329429E-1
1.484047542E1,4.354644056E-1,-9.282741362E-1,2.139168763E-1,1.047417085E0
1.485042542E1,-1.989222765E-2,-6.414202613E-1,-2.586866677E-2,6.422498269E-1
1.486037642E1,-9.071243917E-1,1.203824759E-1,-5.832569839E-1,1.085152207E0
1.487032642E1,-1.448185456E0,3.497091043E-1,-9.863480973E-1,1.786734491E0
1.488027742E1,-1.342330241E0,1.384568042E-1,-1.147067737E0,1.771097161E0
1.489022742E1,-9.667579515E-1,4.122287035E-2,-1.153872288E0,1.505902227E0
1.490017842E1,-6.007973883E-1,4.728526354E-2,-9.189447574E-1,1.098932603E0
1.491012842E1,-1.891961276E-1,-2.041847706E-3,-4.559630992E-1,4.936615152E-1
1.492007942E1,5.874650057E-2,-2.523693359E-1,-2.469498441E-2,2.602907514E-1
1.493002942E1,-9.019849084E-2,-5.741679257E-1,1.844369692E-1,6.097717362E-1
1.493997942E1,-7.176620331E-1,-3.385035002E-1,1.698265314E-2,7.936698456E-1
1.494993042E1,-1.649879751E0,3.960898036E-1,-3.050121108E-1,1.723955542E0
1.495988042E1,-2.208384301E0,4.724088317E-1,-4.937426904E-1,2.311690544E0
1.496982813E1,-2.376952220E0,4.275682890E-1,-6.145028964E-1,2.492053432E0
1.497977813E1,-2.341599077E0,2.077351999E-1,-6.136635286E-1,2.429572612E0
1.498972913E1,-2.053935947E0,-1.512306315E-1,-6.186710840E-1,2.150413330E0
1.499967913E1,-1.814308425E0,-1.572731441E-1,-4.843413909E-1,1.884419403E0
1.500963013E1,-1.599342412E0,-3.750725716E-1,-2.677799651E-1,1.664416323E0
1.501958013E1,-1.725322135E0,-3.994665706E-1,-1.199521208E-1,1.775020710E0
1.502953113E1,-2.119612750E0,-1.152626538E-1,-1.838472775E-1,2.130690853E0
1.503948113E1,-2.450412398E0,2.892161500E-1,-3.766516122E-1,2.496003473E0
1.504943213E1,-2.652434137E0,7.565098375E-1,-5.669483685E-1,2.815873655E0
1.505938213E1,-2.112847668E0,9.952025360E-1,-6.687478083E-1,2.429357320E0
1.506933313E1,-9.365397602E-1,8.636436921E-1,-4.554182848E-1,1.352920162E0
1.507928313E1,2.595788066E-1,6.753972620E-1,-1.226105574E-1,7.338773515E-1
1.508923313E1,8.163469534E-1,4.927062714E-1,2.057120633E-1,9.754482412E-1
1.509918413E1,5.287763926E-1,4.317332608E-1,1.899318901E-1,7.085705361E-1
1.510913412E1,-4.074675351E-1,3.800842202E-1,-5.498721600E-3,5.572468416E-1
1.511908513E1,-1.612958677E0,6.555781245E-1,-2.497404277E-1,1.758916897E0
1.512903513E1,-2.151129243E0,1.049093399E0,-4.012716061E-1,2.426720602E0
1.513898613E1,-1.404360282E0,1.097077405E0,-1.679969376E-1,1.789980336E0
1.514893613E1,-1.009333575E-1,7.071868193E-1,3.137569141E-1,7.802205722E-1
1.515888712E1,7.635243767E-1,6.340510154E-1,6.605637529E-1,1.192197398E0
1.516883713E1,9.165485685E-1,7.298798633E-1,7.843574944E-1,1.409965451E0
1.517878813E1,5.595650528E-1,7.559198534E-1,7.035872734E-1,1.174547966E0
1.518873812E1,-2.933055830E-1,7.879859841E-1,3.656527072E-1,9.168707534E-1
1.519868913E1,-1.312414277E0,1.038648518E0,-2.092300406E-1,1.686712539E0
1.520863913E1,-2.061369512E0,1.170909027E0,-7.442868179E-1,2.484800814E0
1.521859013E1,-2.134367176E0,1.142672238E0,-7.646424374E-1,2.538877930E0
1.522854013E1,-8.437257367E-1,1.178432055E0,-6.758562684E-1,1.599173825E0
1.523849113E1,6.203755474E-1,9.894202244E-1,-2.471963042E-1,1.193701895E0
1.524844113E1,1.345110299E0,1.155575874E0,3.092340928E-1,1.800084176E0
1.525839213E1,1.314491355E0,1.571195378E0,6.137114757E-1,2.138500459E0
1.526834213E1,8.734303962E-1,1.505354560E0,6.087907514E-1,1.843800203E0
1.527829213E1,-1.362686299E-2,1.296945761E0,3.317259926E-1,1.338766646E0
1.528824313E1,-1.095179691E0,9.688093740E-1,-5.706297755E-2,1.463306647E0
1.529819313E1,-2.035352911E0,6.438743377E-1,-1.786423784E-1,2.142229851E0
1.530814413E1,-2.155547399E0,3.101708168E-1,-1.772712064E-1,2.184952083E0
1.531809413E1,-1.341764961E0,4.038145602E-1,-2.110143185E-1,1.417013215E0
1.532804513E1,-9.269232832E-2,5.264675099E-1,-8.153240561E-2,5.407471126E-1
1.533799513E1,7.240393719E-1,6.606669563E-1,1.904584318E-1,9.984929912E-1
1.534794613E1,9.646493724E-1,9.249511635E-1,2.905721194E-1,1.367667804E0
1.535789613E1,5.899059259E-1,1.131613984E0,1.732494915E-1,1.287848825E0
1.536784713E1,-8.458070531E-2,1.214156789E0,2.211183071E-2,1.217300101E0
1.537779713E1,-7.936965211E-1,1.199567401E0,-1.819711983E-1,1.449837796E0
1.538774813E1,-1.363707515E0,9.725340503E-1,-2.789040005E-1,1.698030656E0
1.539769813E1,-1.586185592E0,8.449881506E-1,-2.599596065E-1,1.815920897E0
1.540764913E1,-1.107635722E0,8.950309610E-1,-3.005118012E-2,1.424373683E0
1.541759913E1,-1.681951582E-2,1.149609960E0,4.161112547E-1,1.222716047E0
1.542755013E1,6.905750258E-1,1.413610577E0,1.107682500E0,1.924096996E0
1.543750013E1,9.934738067E-1,1.610993282E0,1.502975913E0,2.416862874E0
1.544745113E1,9.790082337E-1,1.716391098E0,1.536640672E0,2.503142041E0
1.545740113E1,6.473067264E-1,1.595589961E0,1.295102134E0,2.154577188E0
1.546735113E1,7.164198652E-2,1.469356177E0,8.828716761E-1,1.715693022E0
1.547730213E1,-4.701789960E-1,1.092093238E0,4.683818543E-1,1.277934854E0
1.548725213E1,-1.018905467E0,7.149975300E-1,1.604581225E-1,1.255044473E0
1.549720313E1,-1.453808723E0,6.512669724E-1,7.074780107E-2,1.594588888E0
1.550715313E1,-1.245067802E0,8.576029336E-1,2.230619216E-1,1.528212434E0
1.551710412E1,-4.725610055E-1,9.661991769E-1,6.042255378E-1,1.233670642E0
1.552705413E1,1.244477525E-1,1.113710979E0,9.839197487E-1,1.491287182E0
1.553700513E1,4.088297170E-1,1.195114746E0,1.215663616E0,1.753077015E0
1.554695512E1,6.117001066E-1,1.126325762E0,1.198845854E0,1.754998042E0
1.555690613E1,4.590233126E-1,1.108847265E0,1.038074906E0,1.586771619E0
1.556685613E1,5.094284311E-2,9.926905721E-1,7.215692157E-1,1.228288190E0
1.557680713E1,-2.238374817E-1,9.280168587E-1,3.627378702E-1,1.021223419E0
1.558675713E1,-2.480169609E-2,9.056500894E-1,1.691722280E-1,9.216487678E-1
1.559670812E1,5.136745329E-1,8.785505837E-1,4.119825357E-1,1.097926347E0
1.560665813E1,9.428387464E-1,9.931443161E-1,7.983642071E-1,1.585139092E0
1.561660913E1,1.014479271E0,1.217223068E0,1.166664534E0,1.967716017E0
1.562655912E1,9.577809405E-1,1.272695603E0,1.348348634E0,2.086897809E0
1.563651013E1,9.182951318E-1,1.179772237E0,1.304064746E0,1.983863237E0
1.564646013E1,9.797658136E-1,9.860890657E-1,1.048225088E0,1.741002162E0
1.565641013E1,9.453227167E-1,1.001407017E0,8.789721680E-1,1.633720638E0
1.566636113E1,1.010375037E0,1.041120136E0,8.877242804E-1,1.700836045E0
1.567631113E1,1.061408366E0,1.007392226E0,1.069014278E0,1.812241249E0
1.568626213E1,1.118488154E0,1.109065366E0,1.193448874E0,1.976198865E0
1.569621213E1,1.146727429E0,1.045658160E0,1.289536169E0,2.017743372E0
1.570616313E1,1.057246903E0,8.882674867E-1,1.208241161E0,1.834839732E0
1.571611313E1,8.233150072E-1,7.583218896E-1,1.019762596E0,1.514204557E0
1.572606413E1,4.276807018E-1,6.954947269E-1,7.806828117E-1,1.129641249E0
1.573601413E1,5.668320090E-2,5.621530670E-1,6.562300891E-1,8.659486046E-1
1.574596513E1,5.142918527E-2,4.232618147E-1,6.684957933E-1,7.928947916E-1
1.575591513E1,1.927182345E-1,4.706260157E-1,7.889460969E-1,9.386506849E-1
1.576586613E1,4.010820101E-1,5.179574722E-1,9.617652333E-1,1.163674820E0
1.577581613E1,6.065967299E-1,6.214274615E-1,1.008281003E0,1.330699915E0
1.578576713E1,5.599162146E-1,6.103756392E-1,1.019123495E0,1.313269693E0
1.579571713E1,4.475264440E-1,6.300918657E-1,9.750594628E-1,1.244201203E0
1.580566713E1,2.167440051E-1,5.723640597E-1,1.048646672E0,1.214182203E0
1.581561813E1,1.269869059E-2,4.902527797E-1,1.047997631E0,1.157068744E0
1.582556813E1,-6.714357734E-2,2.695619041E-1,1.014065069E0,1.051427527E0
1.583551913E1,-1.567346156E-3,1.054223746E-1,8.347239482E-1,8.413562880E-1
1.584546913E1,2.053825727E-1,-1.154064953E-2,5.693024576E-1,6.053267514E-1
1.585542013E1,4.142166106E-1,-4.650933802E-2,3.667011130E-1,5.551650433E-1
1.586537013E1,5.227491193E-1,1.045207340E-1,3.060438520E-1,6.146983527E-1
1.587532113E1,5.602002431E-1,3.702205521E-1,3.743995571E-1,7.688059560E-1
1.588527113E1,6.362742729E-1,4.343481356E-1,6.122865093E-1,9.840721634E-1
1.589522213E1,8.595975651E-1,4.585544389E-1,9.284182701E-1,1.345786250E0
1.590517212E1,1.210653576E0,3.818208432E-1,1.225790409E0,1.764661827E0
1.591512313E1,1.324998655E0,3.083032161E-1,1.464708810E0,1.999010807E0
1.592507313E1,1.246010811E0,3.877545977E-1,1.426056960E0,1.933011905E0
1.593502413E1,1.159348205E0,3.312453514E-1,1.317001711E0,1.785582608E0
1.594497413E1,1.256993929E0,4.676135302E-2,1.297810272E0,1.807354936E0
1.595492512E1,1.512111164E0,-2.546105736E-1,1.276450978E0,1.995152579E0
1.596487513E1,1.596774461E0,-4.506285381E-1,1.170062351E0,2.030221826E0
