"Time (s)","Linear Acceleration x (m/s^2)","Linear Acceleration y (m/s^2)","Linear Acceleration z (m/s^2)","Absolute acceleration (m/s^2)"
-1.899083349E-3,2.608808354E-2,-9.973253128E-3,-1.141493440E-2,3.017208325E-2
8.050916658E-3,3.192739631E-2,-4.189729186E-2,-1.171606600E-2,5.396302348E-2
1.800091667E-2,1.647960987E-2,-5.062875170E-2,-4.531007409E-3,5.343573774E-2
2.795091664E-2,3.088280037E-2,-6.256047032E-2,-1.560797274E-2,7.149243749E-2
3.790091665E-2,3.392441232E-2,-6.402168038E-2,-1.986883879E-3,7.248164607E-2
4.785091666E-2,1.461081234E-2,-7.044194144E-2,-2.735327482E-3,7.199322862E-2
5.780091666E-2,3.263842687E-4,-8.112843610E-2,-1.815501988E-2,8.313563868E-2
6.775091664E-2,-1.009195617E-2,-9.129548332E-2,-5.430309176E-3,9.201196178E-2
7.770091665E-2,-1.665491670E-2,-8.046943663E-2,-1.381170809E-2,8.332754504E-2
8.765091666E-2,2.043305855E-2,-3.243299774E-3,-2.279361606E-2,3.078275180E-2
9.760091666E-2,1.986546750E-2,2.628101424E-2,-1.006890535E-2,3.444867724E-2
1.075509166E-1,2.267434199E-2,6.465077226E-2,-1.186517000E-2,6.953150651E-2
1.175009166E-1,2.225286738E-2,7.865900162E-2,-1.336030304E-2,8.283070892E-2
1.274509167E-1,2.325959346E-2,6.302038124E-2,-1.066532135E-2,6.801710240E-2
1.374009167E-1,1.434910376E-2,6.674082295E-2,-9.915708303E-3,6.898228394E-2
1.473509167E-1,1.161987931E-3,3.659646196E-2,-9.916877747E-3,3.793409691E-2
1.573009166E-1,-2.129345806E-3,1.843877429E-2,-1.983375549E-3,1.866698394E-2
1.672509167E-1,-1.745772114E-2,-7.169252839E-3,-1.021567047E-2,2.145996591E-2
1.772009167E-1,-2.473285426E-2,-1.489764111E-2,-4.826876521E-3,2.927375151E-2
1.871509167E-1,-2.364188259E-2,-2.924801937E-2,-8.719952703E-3,3.860599468E-2
1.971009166E-1,-2.928572478E-2,-4.949631505E-2,-1.351116121E-2,5.907698669E-2
2.070509167E-1,-8.261823356E-3,-6.245431595E-2,6.097476482E-3,6.329279995E-2
2.170009167E-1,2.006435506E-3,-6.979606622E-2,-4.831554294E-3,6.999186067E-2
2.269509167E-1,-2.190366983E-3,-5.952181853E-2,-6.328441501E-3,5.989736021E-2
2.369009166E-1,1.555238765E-2,-6.227554647E-2,6.844165921E-3,6.455201822E-2
2.468509167E-1,2.645216407E-2,-5.744172181E-2,-1.830412388E-2,6.583547174E-2
2.568009167E-1,3.267716467E-2,-3.797545925E-2,-2.435365319E-3,5.015838515E-2
2.667509167E-1,3.889702155E-2,-1.098654819E-2,-5.577659011E-3,4.080187259E-2
2.767009166E-1,5.329378925E-2,3.815682800E-3,-1.770244539E-2,5.628644580E-2
2.866509166E-1,4.123648340E-2,2.961926275E-2,-5.578828454E-3,5.107711440E-2
2.966009167E-1,2.955997746E-2,4.611808164E-2,-1.800299227E-2,5.766088321E-2
3.065509167E-1,2.118290001E-2,5.569432253E-2,-9.768943191E-3,6.038215850E-2
3.165009166E-1,5.953790294E-3,5.440866142E-2,2.207323909E-3,5.477793657E-2
3.264509166E-1,-1.767475334E-2,3.859172837E-2,-1.021625519E-2,4.365879378E-2
3.364009167E-1,-3.755086460E-2,1.124039958E-2,-3.779055476E-3,3.937886838E-2
3.463509167E-1,-3.521407055E-2,-8.224337222E-3,-1.889820099E-2,4.080211377E-2
3.563009167E-1,-3.627140245E-2,-2.990387140E-2,-1.470750153E-2,4.925613426E-2
3.662509166E-1,-2.796588030E-2,-4.675149498E-2,-2.732988596E-3,5.454596199E-2
3.762009167E-1,-1.480100216E-2,-6.373881675E-2,-2.069621980E-2,6.862973073E-2
3.861509167E-1,1.124181113E-2,-6.963367351E-2,-1.171489656E-2,7.150150771E-2
3.961009167E-1,2.234675174E-2,-7.916555322E-2,-3.332912922E-3,8.232660832E-2
4.060509166E-1,3.491149541E-2,-6.723058208E-2,-2.283922434E-3,7.578904921E-2
4.160009167E-1,4.217733694E-2,-6.245199534E-2,-8.121197820E-3,7.579665776E-2
4.259509167E-1,4.147723337E-2,-4.411692233E-2,-1.051504791E-2,6.145917308E-2
4.359009167E-1,3.503984179E-2,-2.119268039E-2,-2.429518104E-3,4.102222292E-2
4.458509166E-1,3.189643348E-2,-9.645032468E-3,-1.500337064E-2,3.654463368E-2
4.558009167E-1,2.004759913E-2,1.501014976E-2,-1.410406888E-2,2.874257444E-2
4.657509167E-1,1.161485435E-2,2.745235315E-2,-6.019123793E-3,3.040997183E-2
4.757009167E-1,-4.807873070E-4,3.071313062E-2,-1.230780423E-2,3.309092917E-2
4.856509166E-1,-1.222314751E-2,2.682150254E-2,-1.754749417E-2,3.430324890E-2
4.956009166E-1,-2.110081972E-2,3.174232737E-2,-1.230897367E-2,4.005409807E-2
5.055509167E-1,-3.067049162E-2,1.265186262E-2,-2.353562772E-2,4.067768991E-2
5.155009167E-1,-2.574236691E-2,3.652084102E-3,-1.590267241E-2,3.047789629E-2
5.254509166E-1,-2.100926511E-2,-1.131360854E-2,-2.278893828E-2,3.299579772E-2
5.354009166E-1,-1.438556663E-2,-2.838590224E-2,-7.071622610E-3,3.259926103E-2
5.453509167E-1,2.352782534E-3,-4.503171922E-2,-1.216162384E-2,4.670435114E-2
5.553009167E-1,1.242912482E-2,-4.536933197E-2,-2.279069245E-2,5.227116881E-2
5.652509167E-1,3.217381991E-2,-4.331934384E-2,-1.455839753E-2,5.588977703E-2
5.752009166E-1,5.395003871E-2,-4.831524144E-2,-5.726178288E-3,7.264818201E-2
5.851509167E-1,5.907284830E-2,-3.590461758E-2,-5.874697566E-3,6.937762637E-2
5.951009167E-1,5.513099355E-2,-2.130499718E-2,-5.874697566E-3,5.939563474E-2
6.050509167E-1,4.401268657E-2,-8.313626032E-3,-7.521858215E-3,4.541818257E-2
6.150009166E-1,1.672898448E-2,-3.404413406E-3,-4.527499080E-3,1.766202707E-2
6.249509167E-1,1.384839937E-2,4.002145026E-4,-1.081442535E-2,1.757527048E-2
6.349001250E-1,-1.816919024E-2,1.826182750E-2,-1.395905793E-2,2.929964361E-2
6.448501250E-1,-3.031931151E-2,1.534627786E-2,-8.271471262E-3,3.497407799E-2
6.548001250E-1,-3.633990624E-2,1.354145253E-2,-4.228706360E-3,3.901078927E-2
6.647501250E-1,-3.295431356E-2,1.541260265E-2,-1.336147249E-2,3.875647107E-2
6.747001250E-1,-3.087933772E-2,-3.866800256E-3,-1.785271883E-2,3.587764223E-2
6.846501250E-1,-1.897363921E-2,-2.385968681E-2,-1.485952914E-2,3.391296574E-2
6.946001250E-1,-1.063126132E-2,-3.022125187E-2,-1.515715241E-2,3.544131842E-2
7.045501250E-1,-8.893249556E-5,-3.711390857E-2,-1.740189850E-2,4.099117210E-2
7.145001250E-1,9.785068715E-3,-5.311459493E-2,-7.821820378E-3,5.457186673E-2
7.244501250E-1,2.223408320E-2,-4.986403639E-2,-3.031781316E-3,5.468060240E-2
7.344001250E-1,3.870433752E-2,-3.903377788E-2,-1.086412668E-3,5.498037696E-2
7.443501250E-1,3.993683008E-2,-3.527381265E-2,2.613705397E-4,5.328471235E-2
7.543001250E-1,5.020159889E-2,-1.345787846E-2,-2.099384308E-2,5.605404955E-2
7.642501250E-1,4.051235142E-2,1.349153649E-4,-5.875867009E-3,4.093647070E-2
7.742001250E-1,3.861869409E-2,1.402818755E-2,2.956936955E-3,4.119389585E-2
7.841501250E-1,2.037314286E-2,2.387377494E-2,-2.323917389E-2,3.905228909E-2
7.941001250E-1,1.155629997E-2,2.731421725E-2,-7.672716379E-3,3.063470433E-2
8.040501250E-1,-6.457162471E-3,2.122539282E-2,-1.530742586E-2,2.695421180E-2
8.140001250E-1,-1.788795744E-2,2.164181507E-2,-1.485835969E-2,3.176661823E-2
8.239501250E-1,-2.998192716E-2,1.782057742E-3,-6.626649499E-3,3.075718078E-2
8.339001250E-1,-3.376265458E-2,-8.602624666E-3,-1.291357577E-2,3.715753537E-2
8.438501250E-1,-3.648932087E-2,-1.289687466E-2,-9.620423913E-3,3.987922354E-2
8.538001250E-1,-2.537611194E-2,-2.667945174E-2,-7.078054547E-3,3.749452038E-2
8.637501250E-1,-1.912743011E-2,-4.035482835E-2,-3.635798693E-3,4.480613558E-2
8.737001250E-1,-7.981230095E-3,-4.879853665E-2,-1.201778233E-2,5.088638625E-2
8.836501250E-1,1.087622311E-2,-4.479687585E-2,-1.142019689E-2,4.749182258E-2
8.936001250E-1,2.473237918E-2,-3.981942896E-2,-9.026346803E-3,4.773628011E-2
9.035501250E-1,3.165511706E-2,-3.835616324E-2,-1.351642370E-2,5.153576820E-2
9.135001250E-1,4.470291384E-2,-2.926816029E-2,-1.231891394E-2,5.483366988E-2
9.234501250E-1,4.670540247E-2,-7.625358501E-3,-1.516241491E-2,4.969345569E-2
9.334001250E-1,3.816854071E-2,-4.469533986E-3,-3.485525250E-3,3.858708489E-2
9.433501250E-1,2.782424977E-2,1.432979881E-2,-1.830529332E-2,3.625763055E-2
9.533001250E-1,2.201987411E-2,1.533523668E-2,-9.622762799E-3,2.850687467E-2
9.632501250E-1,5.577613330E-3,1.759400238E-2,-5.430893898E-3,1.923936846E-2
9.732001250E-1,-8.958455147E-3,2.390732791E-2,-1.740482211E-2,3.089890094E-2
9.831501250E-1,-1.863218922E-2,1.442872639E-2,-7.825913429E-3,2.483126137E-2
9.931001250E-1,-2.585962186E-2,1.046605007E-2,-1.995128453E-2,3.429740516E-2
1.003050125E0,-3.652219319E-2,-1.060393929E-2,-2.070089757E-2,4.329943746E-2
1.013000125E0,-2.176076937E-2,-1.577580610E-2,-1.396548986E-2,3.028930585E-2
1.022950125E0,-1.430119313E-2,-2.350889955E-2,-9.924479127E-3,2.925214127E-2
1.032900125E0,-1.487624852E-2,-3.158940897E-2,-1.127401650E-2,3.669191978E-2
1.042850125E0,5.402982580E-3,-3.498999885E-2,-8.579034805E-3,3.642927502E-2
1.052800125E0,1.911829384E-2,-3.756687592E-2,1.029109955E-4,4.215198592E-2
1.062750125E0,3.105605154E-2,-3.444556369E-2,-7.830006480E-3,4.703492528E-2
1.072700125E0,3.366445790E-2,-3.375353658E-2,-1.531385779E-2,5.007106148E-2
1.082650125E0,2.896897928E-2,-3.452555634E-2,-2.010331213E-2,4.934935622E-2
1.092600125E0,3.720548602E-2,-2.183649994E-2,-4.086619020E-3,4.333337484E-2
1.102550125E0,2.013265785E-2,-2.596653911E-2,-9.924479127E-3,3.432317513E-2
1.112500125E0,1.923089842E-2,-9.977702494E-3,-8.576695919E-3,2.330110972E-2
1.122450125E0,1.933893487E-3,-6.979697985E-3,-1.426428258E-2,1.599768376E-2
1.132400125E0,1.748911338E-3,1.008164132E-2,-1.112081945E-2,1.511194256E-2
1.142350125E0,-1.086547885E-2,1.693731438E-2,-9.473658800E-3,2.224143566E-2
1.152300125E0,-2.176605013E-2,1.129140283E-2,-1.486420691E-2,2.867405383E-2
1.162250125E0,-1.994986841E-2,1.330447127E-3,-1.531327307E-2,2.518459194E-2
1.172200125E0,-1.087827877E-2,7.344925124E-4,-1.127167761E-2,1.568206442E-2
1.182150125E0,-1.224545829E-2,-1.006499960E-2,-1.426545203E-2,2.132506945E-2
1.192100125E0,-4.543259153E-3,-1.495797249E-2,7.022505999E-4,1.564849197E-2
1.202050125E0,1.813239846E-3,-2.912985537E-2,-7.680317760E-3,3.017985410E-2
1.212000125E0,1.722925032E-2,-3.630541224E-2,-7.533552647E-3,4.088623778E-2
1.221950125E0,1.880916799E-2,-3.800472274E-2,-8.132892251E-3,4.317739788E-2
1.231900125E0,3.439216216E-2,-3.245572879E-2,-6.935382485E-3,4.779429547E-2
1.241850125E0,3.211560356E-2,-3.809958468E-2,-6.935382485E-3,5.030993813E-2
1.251800125E0,3.251623834E-2,-2.438461603E-2,-1.367195964E-2,4.288167131E-2
1.261750125E0,3.052337020E-2,-2.565888877E-2,-1.157631755E-2,4.152187170E-2
1.271700125E0,1.395596987E-2,-1.524279128E-2,-1.007884562E-2,2.299336665E-2
1.281650125E0,9.295218224E-3,-1.342120545E-2,-6.037834883E-3,1.740647258E-2
1.291600125E0,6.509869639E-4,-6.716966140E-3,-1.576877117E-2,1.715212997E-2
1.301550125E0,-1.399353823E-2,-9.308904363E-4,-1.531912029E-2,2.076923483E-2
1.311500125E0,-9.014058514E-3,1.008212554E-2,-7.535306811E-3,1.548171034E-2
1.321450125E0,-8.898064373E-3,1.346778218E-4,-1.247561932E-2,1.532431940E-2
1.331400125E0,-1.893460904E-2,-1.429050369E-3,-1.546939373E-2,2.449211602E-2
1.341350125E0,-5.730161704E-3,3.140114690E-3,-1.457126141E-2,1.596924333E-2
1.351300125E0,4.171284875E-3,-2.814730844E-3,-1.696569622E-2,1.769624749E-2
1.361250125E0,-1.390586654E-3,-1.668655105E-2,-1.247444987E-2,2.088029255E-2
1.371200125E0,1.111239580E-2,-2.437530159E-2,-1.262413859E-2,2.961434692E-2
1.381150125E0,1.275908137E-2,-1.866212879E-2,-1.007943034E-2,2.475205293E-2
1.391100125E0,2.327463177E-2,-3.173199881E-2,-5.288806558E-3,3.970641897E-2
1.401050125E0,3.033508072E-2,-2.401615465E-2,-7.085071206E-3,3.933434937E-2
1.411000125E0,2.660241924E-2,-2.353239348E-2,-1.456950724E-2,3.838922757E-2
1.420950125E0,2.818071979E-2,-2.010367302E-2,-6.485731602E-3,3.521896295E-2
1.430900125E0,1.851097827E-2,-2.558797758E-2,-1.771238565E-2,3.620952248E-2
1.440850125E0,1.297154543E-2,-2.285312061E-2,-2.085584879E-2,3.354836123E-2
1.450800125E0,1.880464554E-3,-7.719813874E-3,-1.427012980E-2,1.633304251E-2
1.460750125E0,-3.341930425E-3,-1.019096141E-2,-4.841494560E-3,1.176708388E-2
1.470700125E0,-1.240163377E-2,-1.238845469E-2,-1.786558270E-2,2.502905062E-2
1.480650125E0,-1.224186773E-2,-1.024464616E-2,-1.442215741E-2,2.151312913E-2
1.490600125E0,-1.377921950E-2,2.980755223E-4,-1.531970501E-2,2.060701581E-2
1.500550125E0,-8.361911243E-3,-3.791467105E-3,-4.093635678E-3,1.005259347E-2
1.510500125E0,-8.786720596E-4,2.565794773E-3,-1.127986372E-2,1.160132289E-2
1.520450125E0,-2.351677045E-5,4.442983973E-3,-7.238268256E-3,8.493125866E-3
1.530400125E0,6.129572215E-3,-2.503019432E-3,-9.332740903E-3,1.144276254E-2
1.540350125E0,1.721190968E-2,-1.120642634E-2,-1.232534587E-2,2.395303690E-2
1.550300125E0,1.751531621E-2,-8.110042429E-3,-1.516943157E-2,2.454935324E-2
1.560250125E0,1.226531141E-2,-1.841911760E-2,-1.651838422E-2,2.761446676E-2
1.570200125E0,2.134253813E-2,-3.904074429E-2,-1.412336469E-2,4.668139970E-2
1.580150125E0,2.789968799E-2,-2.721874775E-2,-5.440249443E-3,3.935542063E-2
1.590100125E0,2.312047541E-2,-1.861129456E-2,-1.097756267E-2,3.164559291E-2
1.600050125E0,1.683266292E-2,-2.486449884E-2,-1.741417766E-2,3.471073936E-2
1.610000125E0,6.617430998E-3,-2.674997921E-2,-1.097814739E-2,2.966262802E-2
1.619950125E0,2.824506657E-3,-1.608586385E-2,-1.517060101E-2,2.229080502E-2
1.629900125E0,-8.183452394E-4,-1.184884805E-2,-1.307729781E-2,1.766580332E-2
1.639850125E0,-9.926123656E-3,-1.078728605E-2,-1.098165572E-2,1.831639248E-2
1.649800125E0,-1.555904799E-2,-1.605101810E-3,-1.636928022E-2,2.264097306E-2
1.659750125E0,-1.199842256E-2,1.340200100E-4,-1.023145795E-2,1.576904681E-2
1.669700125E0,-1.871976955E-3,-3.833270129E-3,-1.083021283E-2,1.164009311E-2
1.679650125E0,8.137588296E-4,9.537128499E-4,-8.586636186E-3,8.677677836E-3
1.689600125E0,1.023198785E-3,4.995212378E-3,-1.217916548E-2,1.320345236E-2
1.699550125E0,1.076423979E-2,7.246504608E-3,-8.285504580E-3,1.539578752E-2
1.709500125E0,2.193488848E-2,-9.929033560E-3,-1.202830732E-2,2.691477693E-2
1.719450125E0,2.944281388E-2,-1.927543319E-2,6.952339411E-4,3.519808183E-2
1.729400125E0,2.905799400E-2,-2.059377019E-2,-3.047568798E-3,3.574574187E-2
1.739350125E0,1.791859137E-2,-3.408544829E-2,-1.352636397E-2,4.081490199E-2
1.749300125E0,8.389877379E-3,-1.979250521E-2,-2.205920577E-2,3.080165360E-2
1.759250125E0,1.256802360E-2,-2.079071172E-2,-7.240022421E-3,2.535008551E-2
1.769200125E0,9.931842964E-3,-3.393429320E-2,-6.341305375E-3,3.592199763E-2
1.779150125E0,5.354797868E-3,-2.987082093E-2,-1.550681591E-3,3.038658284E-2
1.789100125E0,-2.656819476E-3,-2.227626081E-2,1.442508101E-3,2.248046519E-2
1.799050125E0,-9.714600630E-4,-1.486063919E-2,-1.307905197E-2,1.982029093E-2
1.809000125E0,-9.835948627E-3,-7.741334368E-3,-1.532438278E-2,1.978663314E-2
1.818950125E0,-3.679671083E-3,-1.347139101E-3,-9.636796117E-3,1.040300930E-2
1.828900125E0,-2.116957018E-3,-3.507529967E-3,-1.457535446E-2,1.514018596E-2
1.838850125E0,-2.244115686E-3,-3.528716988E-3,-2.325846970E-2,2.363142636E-2
1.848800125E0,2.607730273E-3,-4.240633766E-3,-1.577578783E-2,1.654263321E-2
1.858750125E0,1.997670164E-2,-8.701840038E-3,-1.712357104E-2,2.771294488E-2
1.868700125E0,1.957129774E-2,-6.405825745E-3,-1.742353320E-2,2.697498485E-2
1.878650125E0,2.084054553E-2,-1.721293751E-2,-1.562668383E-2,3.122189621E-2
1.888600125E0,2.397877358E-2,-1.829767824E-2,-1.278142869E-2,3.275899160E-2
1.898550125E0,1.811248139E-2,-1.593168465E-2,-5.596954823E-3,2.476300590E-2
1.908500125E0,1.766344263E-2,-2.171643559E-2,-9.637965560E-3,2.960559340E-2
1.918450125E0,4.626006391E-3,-2.560001919E-2,-5.597539544E-3,2.661002380E-2
1.928400125E0,-1.822631937E-3,-2.622758074E-2,-7.243530750E-3,2.727043668E-2
1.938350125E0,-2.245915532E-3,-2.309003334E-2,-1.143364549E-2,2.586352694E-2
1.948300125E0,-8.132280121E-3,-1.833910667E-2,-2.152360082E-3,2.017645825E-2
1.958250125E0,-4.112977171E-3,-8.176449439E-3,-5.145549774E-3,1.049988520E-2
1.968200125E0,3.591652215E-4,-1.469697654E-2,-8.289012909E-3,1.687713999E-2
1.978150125E0,-2.790720714E-3,-7.286110357E-3,-1.068344772E-2,1.322919428E-2
1.988100125E0,4.022747325E-3,-1.357985686E-2,7.729434371E-3,1.613502910E-2
1.998050125E0,1.121884254E-2,-1.118761932E-2,-4.844418168E-3,1.656784963E-2
2.008000125E0,5.678532617E-3,-4.126841468E-3,1.592196822E-3,7.198030557E-3
2.017950125E0,1.439285737E-2,-1.088684403E-2,-7.987296581E-3,1.973511143E-2
2.027900125E0,1.034764395E-2,-1.226333341E-2,-1.397543013E-2,2.127852742E-2
2.037850125E0,1.646280826E-2,-6.162869367E-3,-1.547231734E-2,2.341789099E-2
2.047800125E0,1.481286105E-2,-8.132366915E-3,-2.899049520E-3,1.714528309E-2
2.057750125E0,1.580749070E-2,-1.043206770E-2,-6.043097377E-3,1.988023704E-2
2.067700125E0,9.455029937E-3,-1.128669308E-2,-1.726858199E-2,2.269341216E-2
2.077650125E0,1.098454278E-4,-1.362982771E-2,-1.352577925E-2,1.920236896E-2
2.087600125E0,-2.001209557E-3,-2.066684211E-2,-9.483014345E-3,2.282653639E-2
2.097550125E0,4.863924114E-3,-1.437584106E-2,-1.157748699E-2,1.908823641E-2
2.107500125E0,-2.254202133E-3,-2.242189759E-2,-5.290560722E-3,2.314763383E-2
2.117450125E0,-6.278000129E-3,-2.491531480E-2,5.467146635E-4,2.569990456E-2
2.127400125E0,4.488715595E-3,-1.688119481E-2,-4.393013120E-3,1.801171481E-2
2.137350125E0,9.929613713E-3,-1.464509164E-2,-1.142779827E-2,2.106348763E-2
2.147300125E0,4.728625026E-3,-6.339697391E-3,-1.172659099E-2,1.414441918E-2
2.157250125E0,-1.888504475E-3,-4.077231498E-3,-1.127810955E-2,1.214026445E-2
2.167200125E0,9.590621386E-3,-5.172625124E-3,-1.442098796E-2,1.807487104E-2
2.177150125E0,1.145631258E-2,9.747445537E-4,-2.597917914E-3,1.178755286E-2
2.187100125E0,7.569494750E-3,-1.312810463E-2,-2.415192425E-2,2.851245039E-2
2.197050125E0,9.058369445E-3,-2.875765268E-2,-7.835853696E-3,3.115216281E-2
2.207000125E0,7.186465580E-3,-1.475063845E-2,-4.842079282E-3,1.710766945E-2
2.216950125E0,7.219063807E-3,-1.136212216E-2,-1.427188396E-2,1.961885252E-2
2.226900125E0,1.039397400E-3,-1.144946495E-2,2.942318916E-3,1.186709042E-2
2.236850125E0,-6.355320420E-3,-5.702017411E-3,-5.291145444E-3,1.004486537E-2
2.246800125E0,2.544370210E-3,-9.880944779E-3,1.143715382E-3,1.026717947E-2
2.256750125E0,-1.154459640E-4,-2.070275681E-2,-4.245663285E-3,2.113393300E-2
2.266700125E0,-3.546062205E-4,-1.011554147E-2,-5.442588329E-3,1.149224488E-2
2.276650125E0,5.399885383E-3,-1.657432563E-2,-1.549512148E-3,1.750051485E-2
2.286600125E0,-3.669319684E-3,-1.360894675E-2,-5.440834165E-3,1.510860732E-2
2.296550125E0,1.708757412E-3,-1.440195710E-2,-2.265503705E-2,2.689957107E-2
2.306500125E0,6.290644733E-3,-1.875615933E-2,-2.295324504E-2,3.030209864E-2
2.316450125E0,3.690515840E-3,-1.698535748E-2,-3.194918633E-3,1.767285435E-2
2.326400125E0,7.728740014E-3,-3.066951404E-3,-4.542117119E-3,9.474726436E-3
2.336350125E0,1.107674606E-2,-1.019817907E-2,-1.532087445E-2,2.148083689E-2
2.346300125E0,6.155628869E-3,-1.026232485E-2,-1.382398725E-2,1.828413798E-2
2.356250125E0,4.706615740E-3,-1.397872833E-2,-9.332740903E-3,1.745443010E-2
2.366200125E0,7.149107354E-3,-9.204686880E-3,-6.937136650E-3,1.356318036E-2
2.376150125E0,9.585121349E-3,-1.020590836E-2,-5.087077618E-5,1.400134652E-2
2.386100125E0,7.578667570E-3,-1.413497232E-2,-1.067876995E-2,1.926836195E-2
2.396050125E0,6.295888955E-3,-5.681670927E-3,-9.032778740E-3,1.238994326E-2
2.406000125E0,1.079440777E-2,-1.491297178E-2,-5.291145444E-3,1.915495201E-2
2.415950125E0,7.101233276E-3,-1.947806206E-2,-1.651604533E-2,2.650664386E-2
2.425900125E0,7.256166218E-3,-1.812323478E-2,-1.516709268E-2,2.472133264E-2
2.435850125E0,5.505528124E-3,-1.526690191E-2,-1.337082803E-2,2.102779532E-2
2.445800125E0,6.341469828E-3,-1.351093280E-2,-1.112491250E-2,1.861513424E-2
2.455750125E0,7.415941386E-3,-1.840441733E-2,-9.177789688E-3,2.186208104E-2
2.465700125E0,6.076992955E-3,-2.996521692E-2,-1.052323401E-2,3.233546849E-2
2.475650125E0,7.306708088E-3,-1.293927154E-2,-1.695984900E-2,2.254881835E-2
2.485600125E0,1.320630200E-2,-1.611755302E-2,-2.439458370E-3,2.097934425E-2
2.495550125E0,3.654719917E-3,-2.599278306E-2,-1.381346226E-2,2.966131299E-2
2.505500125E0,3.527278025E-3,-1.184746847E-2,-1.920167148E-2,2.283655813E-2
2.515450125E0,3.521969849E-3,-8.737096922E-3,-1.231657505E-2,1.550610058E-2
2.525400125E0,9.874640750E-3,-1.482181003E-2,-1.426194370E-2,2.281660844E-2
2.535350125E0,4.179708520E-3,-1.015776933E-2,-1.231423616E-2,1.650123187E-2
2.545300125E0,1.007578497E-2,-7.128642099E-3,-2.283337712E-3,1.255199634E-2
2.555250125E0,6.347910902E-3,-1.551374121E-2,-1.234931946E-3,1.680765290E-2
2.565200125E0,1.205376098E-3,-1.635203550E-2,-1.246041656E-2,2.059378492E-2
2.575150125E0,5.545471916E-3,-5.106560723E-3,-2.608150542E-2,2.714910949E-2
2.585100125E0,3.696691962E-3,-1.491007101E-2,2.359936237E-3,1.554171959E-2
2.595050125E0,7.552227192E-3,-1.355119179E-2,-9.915123582E-3,1.841142608E-2
2.605000125E0,7.777244495E-3,-5.602167067E-3,-1.246041656E-2,1.572042584E-2
2.614950125E0,7.959805531E-3,-1.782383907E-2,-1.410699248E-2,2.408433059E-2
2.624900125E0,4.653789802E-3,-2.037692528E-2,-9.764850140E-3,2.307009193E-2
2.634850500E0,2.797335377E-3,-1.592721244E-2,2.648788691E-4,1.617316735E-2
2.644800500E0,7.112242486E-3,-2.167382401E-2,-1.365441799E-2,2.658536761E-2
2.654750500E0,8.488942003E-3,-8.081934680E-3,-2.293453395E-2,2.575602167E-2
2.664700500E0,1.194955263E-2,-2.111741119E-2,-1.305390894E-2,2.755252080E-2
2.674650500E0,9.223352289E-3,-1.393798054E-2,-7.965077162E-3,1.851431833E-2
2.684600500E0,1.164102064E-2,-1.624091099E-2,-1.395262599E-2,2.437121917E-2
2.694550500E0,5.694283554E-3,-1.663753494E-2,-5.719746351E-3,1.849183421E-2
2.704500500E0,5.211906536E-3,-1.929583906E-2,-1.904145777E-2,2.760562423E-2
2.714450500E0,8.693128601E-3,-1.581945922E-2,-1.976358891E-3,1.815851782E-2
2.724401500E0,6.655602353E-3,-1.485259014E-2,-2.875075936E-3,1.652762954E-2
2.734351500E0,9.929056400E-3,-9.204778243E-3,-1.350297511E-2,1.912183151E-2
2.744300500E0,6.226763902E-3,-3.153284630E-3,-1.350355983E-2,1.520072106E-2
2.754251500E0,1.307529696E-2,-1.284903713E-2,-1.095885158E-2,2.135784571E-2
2.764201500E0,1.372408208E-2,-7.257760498E-3,-1.095826685E-2,1.900287160E-2
2.774151500E0,1.152245921E-2,-1.227813418E-2,-1.440052271E-2,2.215614360E-2
2.784101500E0,1.739807954E-2,-1.586588520E-2,-2.724217772E-3,2.370318222E-2
2.794051500E0,1.244450117E-2,-1.490450245E-2,-9.261989594E-4,1.943881805E-2
2.804001500E0,1.172519314E-2,-1.256525530E-2,-8.260946274E-3,1.906853504E-2
2.813951500E0,5.904755909E-3,-2.349424040E-2,-1.074133515E-3,2.424869558E-2
2.823901500E0,1.008107487E-2,-1.769048144E-2,-1.095417380E-2,2.312088077E-2
2.833851500E0,2.227926208E-3,-1.519458373E-2,-1.394736350E-2,2.074531220E-2
2.843801500E0,6.984599596E-3,-1.543902475E-2,-5.415106416E-3,1.778964571E-2
2.853751500E0,4.882379388E-3,-7.458840762E-3,-2.397475362E-2,2.557852117E-2
2.863701500E0,3.043612791E-3,-9.514982169E-3,-2.113125265E-2,2.337366687E-2
2.873651500E0,1.011526281E-2,-2.224182162E-2,-1.589156270E-2,2.914719431E-2
2.883601500E0,7.976872092E-3,-8.584904862E-3,-1.110269308E-2,1.614313704E-2
2.893551500E0,1.743177412E-2,-1.652742913E-2,-8.108918667E-3,2.535305158E-2
2.903501500E0,1.102191014E-2,-1.480807364E-2,-7.510163784E-3,1.992897660E-2
2.913451500E0,1.605232459E-2,-2.172000331E-2,-1.221483350E-3,2.703567439E-2
2.923401500E0,9.514762899E-3,-8.936555497E-3,-6.310899854E-3,1.449897218E-2
2.933351500E0,1.092448091E-2,-1.467229947E-2,-2.420162559E-3,1.845204166E-2
2.943301500E0,7.124055689E-3,-1.280940397E-2,-8.110088110E-3,1.675131424E-2
2.953251500E0,4.775631158E-3,-1.778547128E-2,-3.319464326E-3,1.871225494E-2
2.963201500E0,3.033343619E-3,-1.476728474E-2,-6.164719462E-3,1.628734595E-2
2.973151500E0,5.461153239E-3,-1.249680634E-2,-2.098448753E-2,2.502684719E-2
2.983101500E0,8.796624318E-3,-1.403881760E-2,-1.469814599E-2,2.214733606E-2
2.993051500E0,-1.236211024E-3,-9.446003297E-3,-1.873974144E-2,2.102220506E-2
3.003001500E0,5.592898317E-3,-1.596555282E-2,-9.309352040E-3,1.930915389E-2
3.012951500E0,9.809645293E-3,-1.059430052E-2,-1.140323997E-2,1.839842999E-2
3.022901500E0,2.852509338E-3,-4.205459110E-3,-9.009389877E-3,1.034368415E-2
3.032851500E0,1.376356906E-2,-1.394472311E-2,-7.510163784E-3,2.098317650E-2
3.042801500E0,1.155280991E-2,-1.329801193E-2,-1.709024191E-2,2.454344936E-2
3.052751500E0,1.413540630E-2,-1.620698801E-2,-8.855608106E-3,2.325721321E-2
3.062701500E0,1.397170253E-2,-1.106757324E-2,-7.658683062E-3,1.939987307E-2
3.072651500E0,1.065771997E-2,-1.719123886E-2,-8.555061221E-3,2.196166571E-2
3.082601500E0,8.788154991E-3,-1.079498336E-2,-1.828307390E-2,2.297899313E-2
3.092551500E0,1.117880738E-2,-8.321940042E-3,-1.289427996E-2,1.898638660E-2
3.102501500E0,6.154495971E-3,-1.420679715E-2,-1.753404558E-2,2.339131591E-2
3.112451500E0,9.608839117E-3,-3.755365117E-3,-6.157702804E-3,1.201456866E-2
3.122401500E0,2.898172438E-3,-1.336736082E-2,-9.450854659E-3,1.662541405E-2
3.132351500E0,5.781343114E-4,-1.114729637E-2,-1.379124284E-2,1.774245853E-2
3.142301500E0,-1.466481686E-3,-1.615712222E-2,-1.798369646E-2,2.422016733E-2
3.152251500E0,5.395691833E-3,-9.595276318E-3,-9.599958658E-3,1.460623238E-2
3.162201500E0,4.709822573E-3,-1.343997136E-2,-1.109450698E-2,1.805279324E-2
3.172151500E0,7.143753497E-3,-8.478435287E-3,-1.214115858E-2,1.644155743E-2
3.182101500E0,5.303954501E-3,-1.201914820E-2,-1.423621595E-2,1.937167265E-2
3.192051500E0,1.393664665E-2,-1.682783440E-2,-1.902567029E-2,2.897209451E-2
3.202001500E0,1.173554454E-2,-1.135851333E-2,-2.276788831E-2,2.801991379E-2
3.211951500E0,1.179213462E-2,-1.419841005E-2,-1.154064953E-2,2.176777155E-2
3.221901500E0,1.633934065E-2,-1.309037182E-2,-1.483263195E-2,2.565811485E-2
3.231851500E0,1.346036352E-2,-1.123007102E-2,-1.079103649E-2,2.058500303E-2
3.241801500E0,1.570817940E-2,-8.713086792E-3,-3.904185891E-3,1.838225908E-2
3.251751500E0,1.647080250E-2,-7.884979444E-3,-6.149516702E-3,1.926854409E-2
3.261701500E0,4.007900879E-3,-1.896421057E-3,-1.094072521E-2,1.180504766E-2
3.271651500E0,6.221766360E-3,-9.744965038E-3,-1.782640636E-2,2.124748183E-2
3.281601500E0,1.099319483E-2,-8.861441617E-3,-4.802902937E-3,1.491453508E-2
3.291551500E0,7.767030140E-3,-1.053994426E-2,-1.393449962E-2,1.912034157E-2
3.301501500E0,1.981292479E-3,-1.254134111E-2,-5.701035261E-3,1.391806595E-2
3.311451500E0,-4.696045071E-5,-1.738876968E-2,-1.123834848E-2,2.070439549E-2
3.321401500E0,5.247464916E-3,-1.404744225E-2,-8.542782068E-3,1.725820521E-2
3.331351500E0,3.444073973E-3,-1.357875593E-2,-3.003129959E-3,1.432700415E-2
3.341301500E0,5.985940844E-3,-9.242342035E-3,-5.547253489E-3,1.232981733E-2
3.351251500E0,1.368186336E-2,-1.109954563E-2,-1.991795540E-2,2.659169505E-2
3.361201500E0,1.330735833E-2,-9.919545539E-3,-1.243293464E-2,2.073791295E-2
3.371151500E0,1.399715619E-2,-9.401838547E-3,-4.500017166E-3,1.745179372E-2
3.381101500E0,1.877349998E-2,-2.465825658E-3,-1.318196297E-2,2.307138369E-2
3.391051500E0,6.645205272E-3,-1.086188373E-2,-1.348075569E-2,1.854373331E-2
3.401001500E0,9.648134233E-3,-9.160832763E-3,-1.976826668E-2,2.382838053E-2
3.410951500E0,6.775589045E-3,-1.376588968E-2,-1.452916145E-2,2.113066156E-2
3.420901500E0,1.113263265E-2,-9.071955085E-3,-3.152233958E-3,1.470280442E-2
3.430851500E0,1.431649639E-2,-9.348720247E-3,-1.692418098E-2,2.405802447E-2
3.440801500E0,1.052913604E-2,-7.077510939E-3,-1.258379281E-2,1.786912724E-2
3.450751500E0,3.184083011E-4,-1.141091900E-2,-5.100526214E-3,1.250303259E-2
3.460701500E0,-1.297944831E-3,-1.397086656E-2,2.831806540E-3,1.431394081E-2
3.470651500E0,6.437766161E-3,-6.080807350E-3,-6.599167585E-3,1.104400579E-2
3.480601500E0,2.158353478E-3,-6.195051894E-3,-1.228675425E-2,1.392844168E-2
3.490551500E0,9.110181257E-3,-4.495142964E-3,-2.291406870E-2,2.506504054E-2
3.500501500E0,1.489125028E-2,-1.178189743E-2,-8.394262791E-3,2.076116783E-2
3.510451500E0,1.662713329E-2,-2.251840406E-3,-1.123951793E-2,2.019552203E-2
3.520401500E0,1.732688969E-2,-1.083715183E-2,-2.707260847E-3,2.061538812E-2
3.530351500E0,2.222072597E-2,-1.552991241E-2,-1.797551036E-2,3.252780064E-2
3.540301500E0,6.737554735E-3,-1.573060895E-2,-1.947181284E-2,2.592292802E-2
3.550251500E0,1.525424360E-2,-1.276238413E-2,-3.604808450E-3,2.021299188E-2
3.560201500E0,1.180178253E-2,-2.194217466E-2,-7.199091911E-3,2.593391648E-2
3.570151500E0,5.042410372E-3,-4.592366628E-3,-9.741461277E-3,1.189166941E-2
3.580101500E0,3.282937501E-3,-1.084919801E-2,-9.739122391E-3,1.494433943E-2
3.590051500E0,7.112854617E-3,-9.711736408E-3,-1.654762030E-3,1.215108070E-2
3.600001500E0,5.294818226E-3,-7.317699026E-3,2.237144709E-3,9.305301475E-3
3.609951500E0,1.122344722E-2,-6.696770405E-3,-7.642895579E-3,1.514022306E-2
3.619902500E0,1.216622852E-3,-1.611722868E-2,-8.691301346E-3,1.835167433E-2
3.629855625E0,3.845549282E-4,-1.645420189E-2,-1.557581306E-2,2.266041912E-2
3.639806625E0,-2.940966748E-4,-1.586595829E-2,-1.063666999E-2,1.910376596E-2
3.649756625E0,3.444868829E-3,-6.556204255E-3,-1.333106697E-2,1.525018957E-2
3.659706625E0,1.167261388E-2,-1.425986976E-2,-1.183301032E-2,2.190008981E-2
3.669656625E0,1.281750784E-2,-1.253571316E-2,-1.392982185E-2,2.270402054E-2
3.679606625E0,1.442261422E-2,-9.575039470E-3,-9.439744949E-3,1.971806194E-2
3.689556625E0,1.023693971E-2,-2.350911425E-2,-8.691886067E-3,2.707438404E-2
3.699506625E0,1.609000258E-2,-8.216694728E-3,-1.048873544E-2,2.089056788E-2
3.709456625E0,2.651322179E-2,-1.981341815E-2,-5.848385096E-3,3.361139802E-2
3.719406625E0,5.492116073E-3,-1.061977245E-2,-1.108632088E-2,1.630488934E-2
3.729356625E0,-2.932433467E-3,-7.184779937E-3,-1.123659432E-2,1.365581490E-2
3.739306625E0,2.093138751E-3,-1.779526080E-2,-7.794338465E-3,1.953981189E-2
3.749256625E0,7.374892104E-4,-1.507348241E-4,-5.549007654E-3,5.599830111E-3
3.759206625E0,7.337744012E-3,-6.270037866E-3,2.384494543E-3,9.941915120E-3
3.769156625E0,1.200285366E-2,-9.865614111E-3,-3.752158284E-3,1.598366446E-2
3.779106625E0,1.368676954E-2,-3.988591363E-3,-1.602546394E-2,2.144882318E-2
3.789056625E0,7.474075500E-3,-1.215336008E-2,-1.378130257E-2,1.983658908E-2
3.799006625E0,1.022263231E-2,-1.553701130E-3,-1.208034754E-3,1.041035765E-2
3.808956625E0,1.623814727E-2,-2.458041096E-2,-5.399903655E-3,2.995050900E-2
3.818906625E0,1.327356325E-2,-1.979115305E-2,-8.842744231E-3,2.541793355E-2
3.828856625E0,8.795738099E-3,-9.534168346E-3,-9.293564558E-3,1.595730920E-2
3.838806625E0,1.571215368E-2,-1.389345948E-2,-1.064076304E-2,2.351862725E-2
3.848756625E0,7.308261255E-3,-6.902126446E-3,-1.288375497E-2,1.634139450E-2
3.858706625E0,1.599880429E-2,-1.534655652E-2,-1.468001962E-2,2.658912394E-2
3.868656625E0,8.944970006E-3,-6.956423325E-3,-1.333282113E-2,1.749766936E-2
3.878606625E0,1.012628116E-3,-1.223531246E-2,-1.213589609E-2,1.726291576E-2
3.888556625E0,5.322373230E-3,-1.232061785E-2,-1.707679331E-2,2.171962594E-2
3.898506625E0,8.303384269E-3,-2.780366574E-2,-3.603639007E-3,2.923997663E-2
3.908456625E0,1.634232821E-3,-2.392772008E-2,-4.502356052E-3,2.440241207E-2
3.918406625E0,-7.567667495E-3,-6.291243159E-3,2.865135670E-4,9.845375657E-3
3.928356625E0,2.577416115E-3,-5.150140752E-3,-2.556402683E-3,6.300969630E-3
3.938306625E0,5.779433632E-3,-9.187076711E-3,-1.228733897E-2,1.639460065E-2
3.948256625E0,6.589848585E-3,-3.704658793E-3,-7.049403191E-3,1.033657035E-2
3.958206625E0,5.461217193E-3,-5.951775745E-3,-6.299790144E-3,1.024382173E-2
3.968156625E0,8.453703392E-3,3.806382073E-3,-5.102280378E-3,1.058238681E-2
3.978106625E0,7.802506294E-3,-1.076610359E-2,-1.004142344E-2,1.666188092E-2
3.988056625E0,1.705620015E-2,-2.000469062E-2,-2.111721933E-2,3.372000241E-2
3.998006625E0,1.266208154E-2,-9.168950343E-3,-1.737383187E-2,2.337194885E-2
4.007956625E0,1.407551802E-2,-7.381451949E-3,-5.847800374E-3,1.693525345E-2
4.017906625E0,1.042564946E-2,-1.212435240E-2,-8.092546463E-3,1.792159022E-2
4.027856625E0,-4.829516904E-3,-1.728366598E-2,-9.138613343E-3,2.013860961E-2
4.037806625E0,2.124750260E-3,-9.450265369E-3,-2.551140189E-3,1.001650615E-2
4.047756625E0,1.368827702E-2,-9.635197269E-3,-1.542437017E-2,2.276218683E-2
4.057706625E0,7.124896226E-3,-4.940317073E-3,-1.572374761E-2,1.795569876E-2
4.067656625E0,9.157013800E-4,-7.650263985E-3,-2.081257939E-2,2.219298333E-2
4.077606625E0,6.551485369E-3,-1.848204369E-3,-7.490283251E-3,1.012137160E-2
4.087556625E0,-5.023918552E-3,-1.515940451E-2,-8.987755179E-3,1.832558446E-2
4.097506625E0,5.744569609E-3,-8.434882667E-3,-7.191490531E-3,1.248458496E-2
4.107456625E0,8.612217754E-3,-1.163188894E-2,-8.389000297E-3,1.672861204E-2
4.117406625E0,8.684047144E-3,-8.961862978E-3,-1.168273687E-2,1.709426815E-2
4.127356625E0,8.626561705E-3,-5.844958993E-3,-1.183242559E-2,1.576665494E-2
4.137306625E0,7.621772513E-3,-6.117772716E-3,-3.069788218E-4,9.778179546E-3
4.147256625E0,1.651308518E-2,-2.974903439E-3,-8.689547181E-3,1.889550906E-2
4.157206625E0,8.580514882E-3,-1.148114955E-2,-6.063562632E-4,1.434606909E-2
4.167156625E0,1.260980378E-2,-1.537049356E-2,-1.123250127E-2,2.283480476E-2
4.177106625E0,7.585410140E-3,-7.466250281E-3,-1.632191777E-2,1.948559314E-2
4.187056625E0,3.765807878E-3,-2.009486108E-2,-7.639387250E-3,2.182532906E-2
4.197007625E0,2.222672850E-3,-1.025254904E-2,-7.190321088E-3,1.271832354E-2
4.206957625E0,4.583997801E-3,-6.938255844E-3,-9.733859897E-3,1.280236144E-2
4.216907625E0,8.105346384E-3,-9.984079613E-3,-6.889189482E-3,1.458901701E-2
4.226857625E0,-6.785967853E-4,-9.169210726E-3,-1.736798465E-2,1.965150910E-2
4.236807625E0,5.119191622E-3,-6.484936746E-3,-5.843122602E-3,1.011941743E-2
4.246757625E0,6.860967530E-3,-3.034444540E-3,-2.305615604E-2,2.424596998E-2
4.256707625E0,1.355136995E-2,-5.434836200E-3,-1.033319950E-2,1.788720448E-2
4.266657625E0,1.219392057E-2,-1.095526559E-2,-1.123133183E-2,1.987089222E-2
4.276607625E0,9.961654628E-3,-7.156411805E-3,-3.298999071E-3,1.270166083E-2
4.286557625E0,1.314999514E-2,-6.301210835E-3,-1.243118048E-2,1.916146858E-2
4.296507625E0,1.531464351E-2,-4.377965676E-4,-3.000791073E-3,1.561200560E-2
4.306457625E0,2.040941387E-2,-8.280936442E-4,-1.377896369E-2,2.463919142E-2
4.316407625E0,1.678170992E-2,-7.140117260E-3,-2.104997635E-3,1.835859683E-2
4.326357625E0,1.573096527E-2,-1.469371032E-2,-1.512733161E-2,2.630978056E-2
4.336307625E0,1.494271492E-2,-1.100403959E-2,-3.451611400E-3,1.887557251E-2
4.346257625E0,1.440409499E-2,-9.332151613E-3,-4.797640443E-3,1.782089673E-2
4.356207625E0,6.528471094E-3,-1.793535643E-2,-4.646782279E-3,1.964409659E-2
4.366157625E0,1.212151559E-2,-2.705746053E-2,-9.286547899E-3,3.106891183E-2
4.376107625E0,8.080906849E-3,-2.327667830E-2,1.432567835E-4,2.463991336E-2
4.386057625E0,2.124585807E-3,-1.479916577E-2,2.935302258E-4,1.495377318E-2
4.396007625E0,6.965395147E-3,-1.209436715E-2,-1.976417363E-2,2.419530958E-2
4.405957625E0,5.270634508E-3,-4.172079731E-3,-1.736973882E-2,1.862508158E-2
4.415907625E0,8.485470219E-3,-2.092257100E-3,-1.452623785E-2,1.695264966E-2
4.425857625E0,2.171859632E-2,-8.853081926E-3,-1.153363287E-2,2.613616600E-2
4.435807625E0,1.754598669E-2,-1.433760119E-2,-1.662304938E-2,2.810256620E-2
4.445757625E0,1.071769048E-2,-1.775295071E-2,-1.033553839E-2,2.317022878E-2
4.455707625E0,1.903143528E-2,-1.611051352E-2,-5.694018602E-3,2.557666949E-2
4.465657625E0,8.290785346E-3,-8.130347799E-3,-8.536934853E-3,1.441245759E-2
4.475607625E0,1.037992241E-2,-1.127559251E-2,-1.497238040E-2,2.142554434E-2
4.485557625E0,9.511784473E-3,-1.647768212E-2,-7.187982202E-3,2.033851371E-2
4.495507625E0,1.022986824E-2,-7.980887485E-3,-1.422393680E-2,1.925266598E-2
4.505457625E0,5.613135165E-3,-8.711277810E-3,-4.045688510E-3,1.112480305E-2
4.515407625E0,9.536562050E-3,-1.081277625E-2,-1.976241946E-2,2.446252990E-2
4.525357625E0,7.045684727E-3,-8.570830431E-3,-2.021090090E-2,2.305604742E-2
4.535307625E0,2.114058078E-2,-5.368927117E-3,-1.063199222E-2,2.426497049E-2
4.545257625E0,8.482089797E-3,-7.130985553E-3,-1.108222783E-2,1.567203164E-2
4.555207625E0,6.488134442E-3,-1.033545616E-3,-5.692849159E-3,8.693252362E-3
4.565157625E0,8.192926710E-3,-9.715578211E-3,-5.844876766E-3,1.398853432E-2
4.575107625E0,5.030524079E-3,-1.896486838E-2,-4.578369856E-4,1.962605462E-2
4.585057625E0,9.016507035E-3,-7.762708683E-3,-6.296281815E-3,1.346106273E-2
4.595007625E0,1.540573217E-2,-1.543224107E-2,-1.393157601E-2,2.587623347E-2
4.604957625E0,6.142006684E-3,-1.762978460E-2,-1.048990488E-2,2.141428625E-2
4.614907625E0,9.982046792E-3,-1.177728818E-2,-8.245743513E-3,1.750251585E-2
4.624857625E0,1.189274328E-2,-8.437299212E-3,-6.748856306E-3,1.606774477E-2
4.634803875E0,9.146470539E-3,-1.026500178E-2,-1.213823497E-2,1.834025445E-2
4.644753875E0,9.172353605E-3,-1.485429405E-2,-3.607732058E-3,1.782688568E-2
4.654703875E0,7.664530277E-3,-1.751449395E-2,-1.378656507E-2,2.357057273E-2
4.664654875E0,5.905532492E-3,-1.762875677E-2,-3.055111706E-2,3.576337698E-2
4.674603875E0,6.752401181E-3,-1.074019312E-3,1.782231331E-3,7.065747498E-3
4.684554875E0,5.357557023E-3,-5.223875055E-3,-8.545705676E-3,1.135875756E-2
4.694504875E0,3.281146791E-3,-1.153067272E-2,-1.573017955E-2,1.977778770E-2
4.704454875E0,8.751207897E-3,-1.422585085E-2,-9.443838000E-3,1.918709327E-2
4.714404875E0,4.346820116E-3,-1.236781128E-2,-1.344859600E-5,1.310945391E-2
4.724354875E0,1.207905019E-2,-1.435718022E-2,-6.150686145E-3,1.974494916E-2
4.734304875E0,5.146810580E-3,-8.151818044E-3,-1.049224377E-2,1.424882366E-2
4.744254875E0,7.932597706E-3,-2.276945518E-2,4.326939583E-3,2.449686922E-2
4.754204875E0,8.799703242E-3,-1.408127387E-2,-6.301544309E-3,1.776025089E-2
4.764154875E0,9.198620394E-3,-1.163335074E-2,-8.994187117E-3,1.734488018E-2
4.774104875E0,-1.730474336E-3,-1.500512024E-2,-3.306015730E-3,1.546214457E-2
4.784054875E0,1.093985726E-2,-4.510030523E-3,-4.055044055E-3,1.250856644E-2
4.794004875E0,8.018268552E-3,-9.037680351E-3,-1.647920787E-2,2.043371207E-2
4.803954875E0,6.341332784E-3,-7.887953301E-3,-1.168975353E-2,1.546229758E-2
4.813904875E0,-5.855438299E-4,-1.263626243E-2,-1.213881969E-2,1.753194038E-2
4.823854875E0,3.286856962E-3,-6.210492197E-3,-1.168916881E-2,1.363855966E-2
4.833804875E0,9.638559418E-3,-7.758455747E-3,-7.797262073E-3,1.462507296E-2
4.843754875E0,4.244576069E-3,-1.074424049E-2,-5.849554539E-3,1.294883848E-2
4.853704875E0,9.942084728E-3,-3.338001827E-3,-9.740876555E-3,1.431334975E-2
4.863654875E0,1.168222524E-2,-1.802135618E-2,-8.094300628E-3,2.295128249E-2
4.873604875E0,7.209406765E-3,-1.396797036E-2,-2.705506682E-3,1.594990622E-2
4.883554875E0,6.567099262E-3,-9.339657063E-3,-4.949668050E-3,1.244408295E-2
4.893504875E0,8.652453907E-3,-1.073736087E-2,-9.291225672E-3,1.662777050E-2
4.903454875E0,1.155159479E-2,-5.249392670E-3,-8.542197347E-3,1.529590145E-2
4.913404875E0,8.881299309E-3,-9.533199901E-3,-1.183476448E-2,1.760173367E-2
4.923354875E0,5.222038664E-3,-9.251469173E-3,-3.900092840E-3,1.131680581E-2
4.933304875E0,5.043123001E-3,-1.064414803E-2,-9.589433670E-3,1.518842372E-2
4.943254875E0,1.208645057E-2,-1.701593659E-2,-2.403790355E-3,2.100958337E-2
4.953204875E0,1.412799678E-2,-1.357718906E-2,-1.422919929E-2,2.421591353E-2
4.963154875E0,1.085801451E-2,-3.998166178E-3,-8.539858460E-3,1.438092468E-2
4.973104875E0,3.704466932E-3,-3.730217521E-3,-5.247876048E-3,7.428176157E-3
4.983054875E0,8.472661162E-3,-4.733860111E-3,-6.895621419E-3,1.190567148E-2
4.993004875E0,1.600909173E-2,-8.258465775E-3,-1.198386848E-2,2.163576620E-2
5.002954875E0,7.540413989E-3,-1.384549860E-2,-2.545643806E-2,2.994304450E-2
5.012904875E0,4.838954676E-3,-1.810462876E-2,-4.590064287E-4,1.874576623E-2
5.022854875E0,5.080243684E-3,-9.536630572E-3,-7.792584300E-3,1.332218333E-2
5.032804875E0,1.402589891E-2,-5.026138667E-3,-2.081433356E-2,2.559735126E-2
5.042754875E0,7.554776212E-3,-1.056184847E-2,-1.602546394E-2,2.062626436E-2
5.052704875E0,2.913503107E-3,-1.023367806E-2,-1.677449226E-2,1.986454776E-2
5.062654875E0,1.376774434E-2,-1.054991650E-2,8.974306583E-3,1.952920124E-2
5.072604875E0,1.082972861E-2,-6.494292291E-3,-7.493206859E-3,1.468356234E-2
5.082555875E0,1.620173008E-2,-8.005993967E-3,-3.451611400E-3,1.839852218E-2
5.092504875E0,7.535754489E-3,-7.016060357E-3,1.788078547E-3,1.045035519E-2
5.102455875E0,8.856101464E-3,-1.092723093E-2,-1.841814458E-2,2.317461885E-2
5.112405875E0,1.150434198E-2,-1.199930878E-2,-1.452623785E-2,2.207588915E-2
5.122355875E0,1.136716995E-3,-1.159943689E-2,-1.003440678E-2,1.537947922E-2
5.132305875E0,6.983914375E-3,-2.295525959E-2,-5.242613554E-3,2.456021172E-2
5.142255875E0,1.463572696E-2,-1.245986838E-2,-1.063140750E-2,2.196541939E-2
5.152205875E0,2.051641792E-4,-1.148533853E-2,-1.586934328E-2,1.959058829E-2
5.162155875E0,1.106013631E-2,-9.698986737E-3,-1.407366335E-2,2.035841249E-2
5.172105875E0,4.439078216E-3,1.778042349E-3,-5.094678998E-3,6.987317374E-3
5.182055875E0,1.361935297E-2,2.345647104E-4,-1.347607791E-2,1.916106656E-2
5.192005875E0,1.075273722E-2,-1.279708370E-2,-2.066055179E-2,2.657527251E-2
5.201955875E0,1.383361688E-2,-1.534132600E-2,-1.392572880E-2,2.491287141E-2
5.211905875E0,5.387231642E-3,-1.209940124E-2,-1.183125615E-2,1.775940306E-2
5.221855875E0,8.617891381E-3,-1.277995775E-2,-1.467534184E-2,2.128288116E-2
5.231805875E0,5.809181342E-3,-7.615920729E-3,-1.228032231E-2,1.557418224E-2
5.241755875E0,4.997971533E-3,-1.071182499E-2,-3.148725629E-3,1.223263615E-2
5.251705875E0,6.709250556E-3,-1.549529507E-2,-3.446933627E-3,1.723367528E-2
5.261655875E0,8.909685714E-3,-1.248447237E-2,-6.590981483E-3,1.669387872E-2
5.271605875E0,1.113720079E-2,-1.454181519E-2,-9.285378456E-3,2.053581953E-2
5.281555875E0,1.806895617E-2,-1.441640612E-2,-9.285963178E-3,2.491082204E-2
5.291505875E0,1.544678145E-2,-9.984719153E-3,-8.837481737E-3,2.040585105E-2
5.301455875E0,1.302908569E-2,-1.218401684E-2,-1.722005010E-2,2.479389977E-2
5.311405875E0,1.183354936E-2,-7.862979295E-3,-4.495339394E-3,1.490192639E-2
5.321355875E0,1.172607022E-2,-7.223791829E-3,-7.489113808E-3,1.567707616E-2
5.331305875E0,1.351821441E-3,-4.080643896E-3,-5.841953158E-3,7.253102269E-3
5.341255875E0,2.165388409E-3,-5.103056962E-3,-1.407600224E-2,1.512824961E-2
5.351205875E0,3.826856464E-3,-1.067893440E-2,-5.094678998E-3,1.243544227E-2
5.361155875E0,1.328948778E-2,-1.774074008E-2,-3.446933627E-3,2.243269256E-2
5.371105875E0,1.242616466E-2,-1.093016824E-2,-2.515355229E-2,3.010945597E-2
5.381055875E0,4.163555587E-3,-1.293286701E-2,-9.437990785E-3,1.654297175E-2
5.391005875E0,6.577103483E-3,-8.173242607E-3,-1.018818855E-2,1.462393145E-2
5.400955875E0,9.592695320E-3,-7.005530801E-3,-5.249630213E-3,1.298675797E-2
5.410905875E0,1.040975234E-2,-1.448729448E-2,-5.099356771E-3,1.855392370E-2
5.420855875E0,6.885891287E-3,-7.997090667E-3,-6.445385814E-3,1.236575741E-2
5.430805875E0,1.291282659E-2,-8.138986146E-3,-3.602469563E-3,1.568317484E-2
5.440755875E0,6.244780635E-3,7.006106386E-4,-8.242235184E-3,1.036448654E-2
5.450705875E0,4.418302327E-3,-1.068872392E-2,-1.243410408E-2,1.698167126E-2
5.460655875E0,1.359691428E-2,-1.195327110E-2,-1.393040657E-2,2.284322646E-2
5.470606875E0,7.455729861E-3,-1.063005533E-5,-6.895621419E-3,1.015566913E-2
5.480556875E0,6.607664321E-3,-3.669895269E-3,-1.422861457E-2,1.611157446E-2
5.490506875E0,5.540392147E-3,-7.914201817E-3,-1.183359504E-2,1.527627268E-2
5.500456875E0,8.084780630E-4,-6.814779094E-3,-1.153304815E-2,1.342035955E-2
5.510406875E0,-1.314362716E-3,-3.014340168E-3,-1.677390754E-2,1.709320831E-2
5.520356875E0,9.222731022E-3,-2.754312661E-4,-1.602370977E-2,1.849037330E-2
5.530306875E0,1.514226942E-2,-2.126011066E-5,1.340181828E-3,1.520147567E-2
5.540256875E0,8.794696564E-3,-1.606797046E-2,1.490455270E-3,1.837791662E-2
5.550206875E0,9.622150669E-3,-1.623962278E-2,-1.332814336E-2,2.310736975E-2
5.560156875E0,1.140081885E-2,-4.701051749E-3,-2.006238163E-2,2.354947376E-2
5.570106875E0,1.149222728E-2,-1.375583977E-2,-8.387830853E-3,1.979015215E-2
5.580056875E0,-6.331255473E-4,-1.881722619E-2,-1.317845464E-2,2.298174310E-2
5.590006875E0,5.425978582E-3,-9.996564332E-3,-1.422569096E-2,1.821380864E-2
5.599956875E0,1.342503355E-2,-1.428409003E-2,-7.039462924E-3,2.082836508E-2
5.609906875E0,8.179222299E-3,-1.691814191E-2,-3.446933627E-3,1.910509237E-2
5.619856875E0,6.897421265E-3,-2.399838916E-3,-1.377487063E-2,1.559104576E-2
5.629806875E0,1.223036516E-3,5.165672419E-3,-1.422510624E-2,1.518333420E-2
5.639757250E0,2.126550106E-3,7.419034014E-3,1.631080806E-2,1.804457649E-2
5.649707250E0,6.791586662E-3,-2.167512593E-3,-1.796732426E-2,1.932998968E-2
5.659657250E0,1.140270093E-2,-2.103417059E-3,-1.257969975E-2,1.710832539E-2
5.669607250E0,1.922799309E-2,-1.399328698E-2,5.382362008E-3,2.438232186E-2
5.679557250E0,6.019809013E-3,-1.081145149E-2,-2.530441046E-2,2.816804524E-2
5.689507250E0,8.012202065E-3,-1.808309913E-2,5.831428170E-3,2.062036398E-2
5.699457250E0,5.512005743E-3,-1.964490413E-2,-1.033553839E-2,2.287198766E-2
5.709407250E0,8.160127485E-3,-2.522685262E-3,-1.392806768E-2,1.633838091E-2
5.719357250E0,1.854700260E-2,-8.140936741E-3,1.301473260E-2,2.407590956E-2
5.729307250E0,1.221597553E-2,-8.631865312E-3,-2.216153204E-2,2.673710268E-2
5.739257250E0,1.579895742E-2,-9.620090439E-3,4.033994079E-3,1.893215001E-2
5.749207250E0,1.149746236E-2,-1.867162595E-2,-8.090792298E-3,2.337268013E-2
5.759157250E0,6.264779940E-3,-1.066318803E-2,-1.602370977E-2,2.024130237E-2
5.769107250E0,1.464837156E-3,-4.974317718E-3,1.432567835E-4,5.187495269E-3
5.779057250E0,9.646772929E-3,-1.145727646E-2,-1.781997442E-2,2.327833543E-2
5.789007250E0,1.305255678E-2,-1.117065326E-2,1.790417433E-3,1.727305205E-2
5.798957250E0,-7.128943596E-4,-3.618882881E-3,-9.045642614E-4,3.797731978E-3
5.808907250E0,7.803858463E-3,-1.375952169E-2,-2.500444829E-2,2.958795496E-2
5.818857250E0,9.065194242E-3,-1.227314120E-2,-1.093429327E-2,1.877142805E-2
5.828807250E0,1.799000049E-2,-8.845708952E-3,-1.033612311E-2,2.255486922E-2
5.838757250E0,9.358943738E-3,-2.654375522E-3,-7.791999578E-3,1.246397989E-2
5.848707250E0,1.302767870E-2,-8.472277438E-3,-6.894451976E-3,1.700098131E-2
5.858657250E0,1.472176326E-2,-1.797110211E-2,-1.452916145E-2,2.740049921E-2
5.868608250E0,3.718783474E-3,-1.507641973E-2,-7.196168303E-3,1.711469020E-2
5.878558250E0,5.566430530E-3,-1.212330630E-2,-3.304261565E-3,1.374328378E-2
5.888508250E0,1.239920352E-2,-1.196658265E-2,-8.243404627E-3,1.910217443E-2
5.898458250E0,1.204115292E-3,-1.359601893E-2,-1.692535043E-2,2.174325439E-2
5.908408250E0,7.139587356E-3,-1.446373202E-2,2.086286545E-3,1.626425047E-2
5.918358250E0,8.798104394E-3,-1.047342304E-2,-5.846630931E-3,1.487556131E-2
5.928308250E0,1.849702718E-3,-1.043557602E-2,-9.590018392E-3,1.429304376E-2
5.938258250E0,4.029572122E-3,-1.410401406E-2,-1.961974740E-2,2.449683963E-2
5.948208250E0,3.360367427E-3,-1.064615801E-2,-1.572608650E-2,1.928581204E-2
5.958158250E0,9.240455395E-3,3.701835684E-4,-6.295112371E-3,1.118711274E-2
5.968108250E0,5.753769837E-3,-1.020816502E-2,-1.991620123E-2,2.310773836E-2
5.978058250E0,1.171348044E-2,-5.118976920E-3,-5.545499325E-3,1.393420652E-2
5.988008250E0,1.616329378E-2,-2.446196373E-3,-1.377779424E-2,2.137904480E-2
5.997958250E0,1.618659128E-2,-5.906930342E-3,-1.317786992E-2,2.169225250E-2
6.007908250E0,1.028457625E-2,-9.000774371E-3,-1.392514408E-2,1.951143474E-2
6.017858250E0,1.546350083E-2,7.020770106E-5,-1.347607791E-2,2.051169089E-2
6.027808250E0,1.499419782E-2,-3.524541711E-3,-5.541406274E-3,1.636934776E-2
6.037758250E0,4.289608765E-3,-8.297980162E-3,2.093303204E-3,9.572833250E-3
6.047708250E0,4.887093706E-3,-1.430555570E-2,-4.193623066E-3,1.568818292E-2
6.057658250E0,5.427650521E-3,-1.934879748E-2,-1.362401247E-2,2.427857223E-2
6.067608250E0,5.171725200E-3,-1.858559879E-2,-5.390548110E-3,2.003070725E-2
6.077558250E0,4.994682474E-3,-1.970173176E-2,-5.691094995E-3,2.110672048E-2
6.087508250E0,8.344890364E-3,-1.186779668E-2,-1.392338991E-2,2.010827143E-2
6.097458250E0,6.573905786E-3,-1.388732447E-2,-6.588057876E-3,1.671755140E-2
6.107408250E0,9.579831446E-3,-2.366331629E-3,-1.212887943E-2,1.563593336E-2
6.117358250E0,1.336480723E-2,-4.753905097E-3,-3.296660185E-3,1.456316086E-2
6.127308250E0,1.324653815E-2,-1.173145149E-2,-5.991641879E-3,1.868147477E-2
6.137258250E0,1.491448383E-2,-5.520406547E-3,-1.377545536E-2,2.103995928E-2
6.147208250E0,1.465616480E-2,-6.637165351E-3,-4.046273232E-3,1.658998064E-2
6.157158250E0,-7.790044416E-4,1.241829833E-3,-1.561206579E-4,1.474232992E-3
6.167108250E0,1.173912596E-2,-5.068996930E-3,-1.333106697E-2,1.847211830E-2
6.177058250E0,1.488089888E-2,2.727273856E-3,-4.498263001E-3,1.578333122E-2
6.187008250E0,6.751816459E-3,-9.185747383E-3,-3.749234676E-3,1.200090585E-2
6.196958250E0,3.017848497E-3,8.584448048E-3,-1.272997320E-2,1.564775944E-2
6.206908250E0,6.070177294E-3,-7.192961471E-3,-8.689547181E-3,1.280991715E-2
6.216858250E0,6.172366524E-3,-7.754878895E-3,-1.288141608E-2,1.625321923E-2
6.226808250E0,7.984162839E-3,-1.896929491E-2,-9.887641668E-3,2.283301258E-2
6.236758250E0,9.389614211E-3,-1.843919913E-2,-5.995734930E-3,2.154339242E-2
6.246709250E0,1.100757533E-2,-7.593897739E-3,-8.241065741E-3,1.570825140E-2
6.256659250E0,8.566225749E-3,-1.091789366E-2,-8.990094066E-3,1.653488484E-2
6.266609250E0,1.170054347E-2,-7.303030738E-3,-7.493206859E-3,1.569665966E-2
6.276559250E0,1.338180983E-2,-3.050752790E-3,-6.595074534E-3,1.522744020E-2
6.286509250E0,1.172697471E-2,-7.049202193E-3,-4.050951004E-3,1.426966683E-2
6.296459250E0,1.164970924E-2,-7.515814570E-3,7.373338938E-4,1.388333012E-2
6.306409250E0,1.440484417E-2,3.066407796E-3,-1.213472664E-2,1.908281905E-2
6.316359250E0,7.117185211E-3,1.144583328E-3,-7.344687581E-3,1.029120168E-2
6.326309250E0,4.087669691E-3,-1.006100704E-2,-3.004884124E-3,1.126775199E-2
6.336259250E0,1.208632266E-2,-1.345794241E-2,-1.303344369E-2,2.229497844E-2
6.346209250E0,1.034829263E-2,-1.217463389E-3,-1.303285897E-2,1.668606575E-2
6.356159250E0,4.958429737E-3,2.110177903E-3,-7.494376302E-3,9.230631202E-3
6.366109250E0,5.937162274E-3,-5.903568193E-3,-1.647453010E-2,1.848004749E-2
6.376059250E0,5.810670555E-3,-9.767061118E-3,-1.707153082E-2,2.050845045E-2
6.386009250E0,8.613898829E-3,-6.544130668E-3,-3.898338675E-3,1.149878009E-2
6.395959250E0,1.088672069E-2,-4.908664450E-3,-3.149895072E-3,1.235060780E-2
6.405909250E0,7.503037490E-3,-1.975301367E-2,-8.837481737E-3,2.290367228E-2
6.415859250E0,1.346953634E-2,-5.618922994E-3,-3.299583793E-3,1.496288602E-2
6.425809250E0,9.719187040E-3,-7.208666727E-3,-1.033436894E-2,1.591309694E-2
6.435759250E0,1.209907690E-2,-1.555828968E-2,-3.898338675E-3,2.009092044E-2
6.445709250E0,6.308113290E-3,-8.894455545E-3,-1.497822762E-2,1.852703255E-2
6.455659250E0,4.582682177E-3,-4.244722249E-3,-1.647511482E-2,1.761953607E-2
6.465609250E0,1.710121457E-2,-9.103767592E-3,-3.901262283E-3,1.976233720E-2
6.475559250E0,1.418132521E-2,-6.683399468E-3,-6.895036697E-3,1.712656837E-2
6.485509250E0,1.857381756E-2,-8.216681024E-3,-1.692535043E-2,2.643800358E-2
6.495459250E0,1.692174160E-2,-1.228723847E-3,2.870982885E-4,1.696872200E-2
6.505409250E0,1.297170988E-2,-1.235720406E-2,-6.150101423E-3,1.894173955E-2
6.515359250E0,6.814144123E-3,1.522359140E-3,-4.653798938E-3,8.390946433E-3
6.525309250E0,8.829999128E-3,-1.176781843E-2,-9.443838000E-3,1.748246297E-2
6.535259250E0,5.277559804E-3,-1.698691978E-2,-1.543080211E-2,2.354820025E-2
6.545209250E0,7.073367639E-3,-1.033913351E-2,-9.143875837E-3,1.550937384E-2
6.555159250E0,9.274506290E-3,-4.137101504E-3,-2.051963389E-2,2.289514033E-2
6.565109250E0,1.125275639E-2,-1.035765731E-2,-1.004200816E-2,1.829610667E-2
6.575059250E0,1.285438185E-2,-2.279167003E-3,-9.443838000E-3,1.611259790E-2
6.585009250E0,-1.154487049E-3,-1.540921766E-2,4.362022877E-4,1.545856079E-2
6.594959250E0,5.899475142E-3,-6.283829072E-3,-1.842340708E-2,2.033991748E-2
6.604909250E0,7.114151968E-3,-1.591132446E-3,-4.201224446E-3,8.413866384E-3
6.614859250E0,6.187971281E-3,-1.321738887E-2,-4.051535726E-3,1.514613148E-2
6.624810250E0,8.811753988E-3,-1.119480500E-2,-3.903016448E-3,1.477173669E-2
6.634759042E0,5.524220942E-3,-4.998990227E-3,-7.495545745E-3,1.056835495E-2
6.644709042E0,9.131103326E-3,-6.197829321E-3,-1.063783944E-2,1.532820159E-2
6.654659042E0,9.992690552E-3,-5.580756208E-3,-1.976885140E-2,2.284307751E-2
6.664609042E0,3.542937599E-3,-1.064636815E-2,-1.408009529E-2,1.800407301E-2
6.674559042E0,6.023600567E-3,-1.545562993E-2,-1.976768196E-2,2.580545505E-2
6.684509042E0,6.440516179E-3,-1.989861847E-2,-2.554648519E-3,2.107039380E-2
6.694459042E0,1.163857212E-2,-1.186779211E-2,-6.596828699E-3,1.788348399E-2
6.704409042E0,1.531553887E-2,-1.720263179E-2,-4.202978611E-3,2.341284478E-2
6.714359042E0,3.349805893E-3,-1.163546122E-2,-1.438239634E-2,1.880049153E-2
6.724309042E0,7.392598204E-3,-1.035593055E-2,-1.303812146E-2,1.821780495E-2
6.734259042E0,4.747409206E-3,-2.251953239E-2,-8.546875119E-3,2.455028121E-2
6.744209042E0,1.680517187E-3,-7.667143252E-3,-1.423563123E-2,1.625615022E-2
6.754159042E0,6.161741037E-3,-6.556026097E-3,-1.004551649E-2,1.348558239E-2
6.764109042E0,1.163108038E-2,-2.104807144E-2,-1.139329970E-2,2.661034799E-2
6.774059042E0,1.394821317E-2,-1.171644059E-2,-3.909448385E-3,1.863092637E-2
6.784009042E0,1.418366410E-2,-8.871153477E-3,-2.007641494E-2,2.613304667E-2
6.793959042E0,1.437706989E-2,-1.555806127E-2,-1.633478165E-2,2.675029908E-2
6.803909042E0,8.699423494E-3,-1.302950139E-2,-9.748477936E-3,1.845211905E-2
6.813859042E0,5.794937890E-3,-1.990913889E-2,-8.100147843E-3,2.226134569E-2
6.823809042E0,5.787921231E-3,-1.412375298E-2,-1.154474258E-2,1.913795997E-2
6.833759042E0,9.463142948E-3,-1.331925833E-2,-1.573661149E-2,2.268467893E-2
6.843709042E0,7.786462996E-3,-6.760856803E-3,-5.259570479E-3,1.157589186E-2
6.853659042E0,1.926264698E-3,-7.506614341E-3,-3.913541436E-3,8.681909993E-3
6.863609042E0,2.853441238E-4,-3.485835884E-3,-1.274517596E-2,1.321635287E-2
6.873559042E0,-1.808982342E-5,4.194746828E-3,-9.452608824E-3,1.034156863E-2
6.883509042E0,1.307689581E-2,3.419355783E-3,-9.752570987E-3,1.666762847E-2
6.893459042E0,8.357534967E-3,1.055823965E-2,-5.709806085E-3,1.462623330E-2
6.903409042E0,1.822155937E-2,-5.850276304E-3,-4.960193038E-3,1.977003980E-2
6.913359042E0,1.019406318E-2,-7.610886642E-3,-1.094832659E-2,1.678422994E-2
6.923309042E0,1.011359087E-2,-9.246882764E-3,-9.602882266E-3,1.673334721E-2
6.933259042E0,1.014745904E-2,-1.090370046E-2,-1.139914691E-2,1.875638982E-2
6.943209042E0,8.502043420E-3,-1.554439798E-2,-2.267550230E-3,1.786210611E-2
6.953159042E0,7.205715710E-3,-2.141772510E-2,-2.127743304E-2,3.103820942E-2
6.963109042E0,1.125834779E-2,-1.974697459E-2,-2.716616392E-3,2.289264959E-2
6.973059042E0,1.117595687E-2,-2.056798305E-2,-2.547047138E-2,3.459319082E-2
6.983009042E0,2.830024967E-3,-2.705473335E-2,1.174705625E-3,2.722769860E-2
6.992959042E0,-2.750649014E-3,-1.767815660E-2,-1.259607196E-2,2.188022668E-2
7.002910042E0,-4.108646577E-3,-1.544973247E-2,-1.334510028E-2,2.082467074E-2
7.012859042E0,3.132262062E-3,-1.379523082E-2,-7.806617618E-3,1.615743599E-2
7.022810042E0,2.346642958E-3,3.186152377E-3,-1.888592184E-2,1.929601886E-2
7.032760042E0,3.534477409E-3,-8.862706991E-3,-1.222068071E-3,9.619436373E-3
7.042710042E0,2.480781740E-3,1.333932616E-3,-2.292634785E-2,2.309872464E-2
7.052660042E0,1.378800860E-2,8.039181484E-3,-7.958060503E-3,1.783447075E-2
7.062610042E0,1.729897837E-2,5.403019125E-3,-1.888709128E-2,2.617574231E-2
7.072560042E0,1.594320092E-2,-5.702487929E-3,-2.801751852E-2,3.273660594E-2
7.082510042E0,1.242077426E-2,-5.573538551E-3,5.812132359E-3,1.480273109E-2
7.092460042E0,5.914001819E-3,-1.142854288E-2,-2.292810202E-2,2.629229682E-2
7.102410042E0,1.233471969E-2,-1.658638551E-2,-5.415106416E-3,2.136765948E-2
7.112360042E0,1.071856756E-2,-2.365371407E-2,-5.715653300E-3,2.659049778E-2
7.122310042E0,5.232207337E-3,-2.235410644E-2,-2.293044090E-2,3.244822319E-2
7.132260042E0,-1.759372372E-4,-2.163678098E-2,-6.268215179E-4,2.164657364E-2
7.142210042E0,-4.990297062E-3,-1.514585084E-2,-7.770949602E-4,1.596570509E-2
7.152160042E0,5.428911326E-3,-1.128191481E-2,-1.050686181E-2,1.634468797E-2
7.162110042E0,1.086892323E-2,-7.535293107E-3,-1.604475975E-2,2.079299040E-2
7.172060042E0,1.168070862E-2,-1.291177135E-2,-1.364915550E-2,2.212356751E-2
7.182010042E0,-3.032621853E-3,-2.893777890E-3,3.714736104E-3,5.600893688E-3
7.191960042E0,3.170378599E-3,-1.953109356E-2,-1.334919333E-2,2.386872177E-2
7.201910042E0,1.660006251E-3,-1.446318842E-2,-1.499459982E-2,2.089922160E-2
7.211860042E0,9.598999349E-3,-1.981451450E-2,-3.245204687E-4,2.201956146E-2
7.221810042E0,3.100056695E-3,-6.269713528E-3,-1.439526021E-2,1.600447362E-2
7.231760042E0,-1.000339827E-3,-1.076254501E-2,-4.665493369E-3,1.177284517E-2
7.241710042E0,8.557546288E-3,8.514619502E-3,-8.556230664E-3,1.479660187E-2
7.251660042E0,9.773429101E-3,-4.880419658E-3,-1.035249531E-2,1.505033460E-2
7.261610042E0,1.661463487E-2,-1.106271731E-2,-1.668795347E-3,2.003034408E-2
7.271560042E0,6.234566281E-3,-1.327763346E-2,-8.254514337E-3,1.683158858E-2
7.281510042E0,1.675081104E-3,-1.194493881E-2,-1.304338396E-2,1.776562200E-2
7.291460042E0,-1.351364627E-3,-2.011803981E-2,-1.214525163E-2,2.353866711E-2
7.301410042E0,4.014689131E-3,-2.567492293E-2,-6.008598804E-3,2.667250749E-2
7.311360042E0,1.490432429E-2,-2.381428866E-2,-5.410428643E-3,2.860999764E-2
7.321310042E0,1.184624878E-2,-1.350231729E-2,-6.159456968E-3,1.898907824E-2
7.331260042E0,1.317341141E-3,-1.063499349E-2,-1.671134233E-3,1.084579014E-2
7.341210042E0,1.492360183E-2,-1.123035424E-2,-1.678794086E-2,2.511313812E-2
7.351160042E0,1.073596302E-2,2.531373859E-3,-6.608523130E-3,1.285851211E-2
7.361110042E0,1.381967492E-2,-1.230811486E-2,2.765733004E-4,1.850809550E-2
7.371061042E0,5.517889503E-3,-5.500192540E-3,-1.558926165E-2,1.742768778E-2
7.381011042E0,3.917259900E-3,-7.525544702E-3,-2.726439714E-2,2.855391567E-2
7.390961042E0,5.028833868E-3,-9.780358966E-3,-8.403033614E-3,1.384036002E-2
7.400911042E0,5.022328841E-3,-1.215215866E-3,-1.334100723E-2,1.430674703E-2
7.410861042E0,-1.021716882E-2,5.465630013E-3,-2.416069508E-3,1.183642860E-2
7.420811042E0,-1.153721155E-1,9.725529442E-2,-4.522645891E-2,1.575269816E-1
7.430761042E0,1.887340879E-1,-1.859385707E-1,2.078100443E-3,2.649491018E-1
7.440711042E0,-1.388176048E-1,7.634214748E-2,9.414601922E-3,1.587043969E-1
7.450661042E0,6.418611961E-2,-5.084989979E-2,-2.755909681E-2,8.640066016E-2
7.460611042E0,-5.372403469E-3,-1.542252007E-2,-1.618158460E-2,2.299044420E-2
7.470561042E0,3.152032960E-3,-4.263613324E-2,-7.497884631E-3,4.340499330E-2
7.480511042E0,-3.318964572E-2,-5.481588801E-2,-5.853881478E-2,8.679358846E-2
7.490461042E0,6.905381701E-2,1.120107248E-3,1.004282677E-1,1.218832279E-1
7.500411042E0,6.665859648E-2,-2.345736183E-2,-4.536620736E-2,8.397445492E-2
7.510361042E0,1.256897560E-1,1.346108072E-2,-7.529927373E-2,1.471363180E-1
7.520311042E0,1.187607323E-1,8.267329789E-2,2.814381838E-2,1.474145862E-1
7.530261042E0,9.986959550E-1,3.529548572E-1,1.662948132E-2,1.059361733E0
7.540211042E0,1.760867067E0,8.496033579E-1,1.890638709E-2,1.955207443E0
7.550161042E0,4.820118236E-1,-1.285058024E-1,8.882505298E-3,4.989268867E-1
7.560111042E0,-5.819457093E-1,-4.108605281E-1,-1.285106903E-1,7.238661338E-1
7.570061042E0,-9.162632243E-1,-1.898495540E-1,-1.063789791E-1,9.417524285E-1
7.580011042E0,-2.663096462E-1,7.846945864E-1,3.948121870E-1,9.179014569E-1
7.589961042E0,1.248367970E0,1.616192041E0,-2.895225441E-1,2.062600932E0
7.599911042E0,1.286113501E0,6.364951515E-1,9.344844639E-2,1.438035684E0
7.609861042E0,6.305353039E-1,-9.751048518E-1,1.533539309E0,1.923576630E0
7.619811042E0,-8.493477250E-2,-9.090499529E-1,4.809919596E-3,9.130218332E-1
7.629761042E0,-7.548609958E-1,-4.207430535E-1,-3.338467777E-1,9.264413155E-1
7.639711250E0,-7.321548687E-1,-1.208116980E-1,-4.335803962E-1,8.594406193E-1
7.649661250E0,-3.622588371E-1,6.619698621E-2,7.663360834E-3,3.683371188E-1
7.659611250E0,-5.221100369E-2,2.816262083E-1,9.556689262E-3,2.865844386E-1
7.669561250E0,7.766767929E-2,3.031308057E-1,-1.350122094E-3,3.129255128E-1
7.679511250E0,1.865127673E-1,-1.118318549E-1,-4.666779757E-2,2.224213556E-1
7.689462250E0,2.054197391E-1,-7.904376485E-1,-5.606661201E-2,8.186161557E-1
7.699411250E0,-4.995020516E-3,-6.669965672E-1,-1.718444055E-1,6.887959572E-1
7.709362250E0,-3.651369828E-1,-5.237205610E-1,-2.499368942E-1,6.856213921E-1
7.719312250E0,-9.496081410E-1,-4.907284507E-1,1.515089589E-1,1.079594831E0
7.729262250E0,-9.507712984E-1,-1.138741777E-1,1.108675942E0,1.464955881E0
7.739212250E0,-3.063437228E-1,7.676412916E-2,1.876931081E0,1.903315395E0
7.749162250E0,2.938708626E-1,3.148589316E-1,3.902270928E0,3.925966712E0
7.759112250E0,1.005074536E0,3.735196242E-1,4.907016120E0,5.022797919E0
7.769062250E0,1.542153573E0,-3.713287456E-1,4.543120501E0,4.812075079E0
7.779012250E0,1.320931917E0,-1.338677339E0,4.013674420E0,4.432437308E0
7.788962250E0,6.383406059E-1,-1.790225059E0,3.641820740E0,4.107948733E0
7.798912250E0,-3.210197407E-1,-1.102715656E0,3.230079694E0,3.428184698E0
7.808862250E0,-9.296981525E-1,9.434058532E-2,3.006464626E0,3.148343747E0
7.818812250E0,-6.883925526E-1,4.877807962E-1,3.809060463E0,3.901378734E0
7.828762250E0,-1.194573002E-1,2.046708204E-1,4.140996371E0,4.147771828E0
7.838712250E0,3.099954734E-1,-6.089849520E-1,3.741795264E0,3.803681330E0
7.848662250E0,1.670722736E-1,-1.522433985E0,3.532964880E0,3.850656987E0
7.858612250E0,-5.175795228E-1,-1.295052871E0,3.679304901E0,3.934759847E0
7.868562250E0,-1.153529860E0,4.321340874E-2,4.351523616E0,4.502028023E0
7.878512250E0,-1.315796307E0,9.278220002E-1,4.574877899E0,4.849915605E0
7.888462250E0,-1.096347088E0,6.851143111E-1,4.444458677E0,4.628668436E0
7.898412250E0,-9.559824832E-1,2.538232461E-2,4.529158520E0,4.629019731E0
7.908362250E0,-7.231157311E-1,-3.668470010E-2,4.067140190E0,4.131085990E0
7.918312250E0,-5.947670086E-1,2.764762366E-1,3.869995467E0,3.925181756E0
7.928262250E0,-2.713660625E-1,1.798749715E-1,5.666844252E0,5.676188715E0
7.938212250E0,-8.536054847E-1,9.791104138E-1,3.383222950E0,3.624016702E0
7.948162250E0,-1.165330199E0,8.634951729E-1,2.002935070E0,2.472926866E0
7.958112250E0,-1.089941317E0,-5.792281061E-1,3.716345258E0,3.915954462E0
7.968062250E0,-9.447284203E-1,-2.572380200E-1,2.988970342E0,3.145254662E0
7.978012250E0,-7.378085415E-1,2.614173174E-1,3.303093292E0,3.394572985E0
7.987962250E0,-7.025979976E-1,5.756007859E-1,3.123201363E0,3.252590808E0
7.997913250E0,-4.214439154E-1,4.645165524E-1,2.306759904E0,2.390508702E0
8.007863250E0,1.079983655E-1,-1.772565883E-1,3.584670054E0,3.590674441E0
8.017813250E0,-1.372508890E-1,-2.240494578E0,3.460552377E0,4.124812301E0
8.027763250E0,-7.992284987E-1,-4.613811584E0,-7.438886225E-1,4.741243910E0
8.037713250E0,-7.928966220E-1,-2.646921675E0,-4.453324226E0,5.240894586E0
8.047663250E0,4.443079904E-2,-1.083621792E0,-7.707869840E-1,1.330534802E0
8.057613250E0,-1.605042570E0,-4.709557986E-1,4.916514337E-1,1.743468425E0
8.067563250E0,-2.026017247E0,1.618240321E-1,-1.842866957E-2,2.032553201E0
8.077513250E0,-1.524264455E0,6.208573580E-2,-3.144603342E-1,1.557601384E0
8.087463250E0,-1.313723761E0,-6.268028069E-1,2.620412153E-1,1.478992048E0
8.097413250E0,-1.329906808E0,-1.549956536E-1,3.297730225E-1,1.378922049E0
8.107363250E0,-1.187896066E0,3.098574060E-1,9.213019162E-1,1.534896054E0
8.117313250E0,-8.517479704E-1,6.845218420E-2,1.377584127E0,1.621079373E0
8.127263250E0,-6.826836236E-1,-1.125489610E-1,1.341343085E0,1.509279785E0
8.137213250E0,-6.329991013E-1,-4.135150909E-2,1.255659156E0,1.406796974E0
8.147163250E0,-6.603097645E-1,-4.745799029E-1,9.762177962E-1,1.270525976E0
8.157113250E0,-5.821700596E-1,-1.134062798E0,3.752438951E-1,1.328844757E0
8.167063250E0,-4.843537431E-1,-1.671716616E0,-4.165848792E-1,1.789630676E0
8.177013250E0,-6.962063330E-1,-1.573015031E0,-1.098700007E0,2.041132346E0
8.186963250E0,-1.039738439E0,-1.325997067E0,-1.221341847E0,2.081105512E0
8.196913250E0,-9.174050394E-1,-5.656836158E-1,-1.222243488E0,1.629573289E0
8.206863250E0,-4.390860613E-1,-9.281209391E-1,-8.530061451E-1,1.334850003E0
8.216813250E0,-6.028194286E-2,-1.649014217E0,-4.413949075E-1,1.708130927E0
8.226763250E0,1.603909526E-1,-2.059646630E0,-3.867184711E-1,2.101766085E0
8.236713250E0,9.258422792E-2,-1.870276950E0,-9.070162913E-1,2.080669667E0
8.246663250E0,-3.304384357E-1,-1.652987400E0,-1.421471574E0,2.205025700E0
8.256614250E0,-4.904409139E-1,-8.698978740E-1,-2.058947011E0,2.288343810E0
8.266564250E0,-3.936257869E-1,-7.535505617E-1,-2.213252401E0,2.370920897E0
8.276514250E0,-1.363575076E-1,-1.155443142E0,-2.222294827E0,2.508433081E0
8.286464250E0,-1.140154427E-1,-1.502325702E0,-1.677447765E0,2.254731257E0
8.296414250E0,-5.077283531E-2,-1.594230484E0,-1.339375497E0,2.082804704E0
8.306364250E0,1.686565036E-1,-2.168820578E0,-7.340442502E-1,2.295876451E0
8.316314250E0,3.700119527E-1,-2.107259338E0,-6.823384917E-1,2.245670630E0
8.326264250E0,3.996970971E-1,-2.344042920E0,-1.178382354E0,2.653842489E0
8.336214250E0,2.439974387E-1,-3.171532694E0,-8.877634567E-1,3.302465493E0
8.346164250E0,1.498778781E-1,-2.999293601E0,-1.720246898E0,3.460848866E0
8.356114250E0,-2.661876221E-1,-2.556144821E0,-1.712918583E0,3.088498384E0
8.366064250E0,-5.151323900E-1,-1.965140423E0,-1.976105852E0,2.834101727E0
8.376014250E0,-4.154019874E-1,-1.269003671E0,-2.119943703E0,2.505412228E0
8.385964250E0,-1.352906831E-1,-1.168108796E0,-2.000131330E0,2.320195480E0
8.395914250E0,-8.844337597E-2,-1.853215359E0,-1.421899882E0,2.337526187E0
8.405864250E0,-8.972493947E-2,-2.236385740E0,-9.473256804E-1,2.430411012E0
8.415814250E0,-2.759822930E-1,-2.269776265E0,-8.229808389E-1,2.430092175E0
8.425764250E0,-5.699232857E-1,-1.861203241E0,-1.274522712E0,2.326649565E0
8.435714250E0,-6.524245749E-1,-1.517210959E0,-1.677981323E0,2.354401886E0
8.445664250E0,-5.997382383E-1,-1.387068896E0,-1.731903322E0,2.298507166E0
8.455614250E0,-4.279343247E-1,-9.612430769E-1,-1.449137090E0,1.790841798E0
8.465564250E0,-9.164735779E-2,-3.107882828E-1,-1.381034715E0,1.418536386E0
8.475514250E0,3.758692548E-1,-1.180991966E0,-4.042028153E-1,1.303610232E0
8.485464250E0,9.457830387E-1,-1.659537451E0,1.006193986E-1,1.912771385E0
8.495415250E0,1.191425592E0,-1.349644377E0,-2.486374967E-1,1.817375990E0
8.505365250E0,9.795685431E-1,-1.707376446E0,-5.654794018E-1,2.048037063E0
8.515315250E0,4.914514589E-1,-2.551094581E0,-4.847341776E-4,2.598000834E0
8.525265250E0,4.804423213E-2,-2.055091649E0,-9.229343858E-1,2.253334821E0
8.535215250E0,-6.385918169E-1,-1.182301158E0,-1.212048867E0,1.809612664E0
8.545165250E0,-9.037655318E-1,-3.949946201E-1,-1.719587771E0,1.982371052E0
8.555115250E0,-2.386156614E-1,-1.049883943E0,-8.631840279E-1,1.379956663E0
8.565065250E0,5.266908735E-1,-2.160709906E0,3.811080676E-1,2.256394011E0
8.575015250E0,8.193196048E-1,-1.856609668E0,7.285887980E-1,2.156183135E0
8.584965250E0,4.087677366E-1,-1.524573188E0,6.862397540E-1,1.721144814E0
8.594915250E0,-3.163071772E-1,-1.599670733E0,7.497603965E-1,1.794752723E0
8.604865250E0,-1.046578073E0,-1.826909906E0,6.598787516E-1,2.206437272E0
8.614815250E0,-1.341390593E0,-1.244007994E0,-3.658878018E-1,1.865679098E0
8.624765250E0,-1.467230275E0,-1.364526710E0,-1.167158623E0,2.318826659E0
8.634719500E0,-1.310534251E0,-1.604657823E0,-1.501355065E0,2.558611691E0
8.644669500E0,-1.134699998E0,-2.070996076E0,-1.254873290E0,2.674186943E0
8.654619500E0,-5.196788925E-1,-2.179259613E0,-7.298734313E-1,2.356258440E0
8.664569500E0,-2.068511009E-2,-1.919661364E0,-4.658465016E-1,1.975484900E0
8.674519500E0,1.114186943E-1,-1.611777978E0,-3.245292395E-1,1.647896114E0
8.684469500E0,-8.285095274E-2,-1.370276862E0,-2.408871585E-1,1.393753774E0
8.694419500E0,-2.479842165E-1,-1.207485116E0,-2.903008268E-1,1.266408720E0
8.704370500E0,-1.910567482E-1,-1.075833301E0,-2.909960425E-1,1.130751374E0
8.714320500E0,1.600850701E-2,-1.023064519E0,-2.329273256E-1,1.049367629E0
8.724270500E0,1.234662974E-1,-1.070798848E0,-4.049021423E-2,1.078653585E0
8.734220500E0,1.761630128E-1,-9.885343713E-1,1.663287270E-1,1.017791165E0
8.744170500E0,2.250903207E-1,-5.063577658E-1,3.938392103E-2,5.555312167E-1
8.754120500E0,1.180675632E-1,-6.239435184E-1,2.045987717E-1,6.671627395E-1
8.764070500E0,1.790237631E-1,-4.879448837E-1,1.787599075E-1,5.496315328E-1
8.774020500E0,2.472082910E-1,-9.294734001E-3,-5.276083016E-1,5.827253651E-1
8.783970500E0,3.521036853E-1,-3.535928249E-2,-5.660993528E-1,6.676044947E-1
8.793920500E0,6.586515673E-1,-3.003129959E-1,-6.732484102E-1,9.885712946E-1
8.803870500E0,7.068390562E-1,-7.215177602E-1,-1.987223017E-1,1.029417254E0
8.813820500E0,7.407733722E-1,-4.566897619E-1,8.431918859E-2,8.743114166E-1
8.823770500E0,4.883534579E-1,-2.394598532E-1,-9.695385218E-2,5.524763982E-1
8.833720500E0,2.827941531E-1,2.495731974E-1,-1.927277362E-1,4.235602604E-1
8.843670500E0,-9.899336100E-3,6.402432168E-1,-9.605992985E-1,1.154452418E0
8.853620500E0,-4.646881682E-1,7.535219103E-1,-9.223269331E-1,1.278443325E0
8.863570500E0,-5.428378133E-1,2.036287004E-1,-2.966889099E-1,6.512770904E-1
8.873520500E0,-7.389418781E-3,9.275262773E-2,3.825622702E-1,3.937150543E-1
8.883470500E0,7.058346507E-1,1.786230826E-1,5.477566373E-1,9.111235336E-1
8.893420500E0,6.478288096E-1,1.293082505E-1,6.096692955E-1,8.989435133E-1
8.903371500E0,4.908065110E-2,3.838656145E-1,3.280603731E-1,5.073315767E-1
8.913321500E0,-2.625885147E-1,2.269573367E-1,-4.681865573E-2,3.502204266E-1
8.923271500E0,5.039545602E-1,-3.352232122E-1,2.170755057E-1,6.430136670E-1
8.933221500E0,1.646132416E0,-1.197016261E0,8.536782825E-1,2.207117231E0
8.943171500E0,2.028544413E0,-9.947739351E-1,6.569042730E-1,2.352889892E0
8.953121500E0,1.768460553E0,-4.482504755E-1,1.397507930E-1,1.829729899E0
8.963071500E0,1.234781965E0,2.689970630E-1,-2.532920996E-1,1.288876568E0
8.973021500E0,8.508350739E-1,8.656837857E-1,-3.945234076E-1,1.276314013E0
8.982971500E0,6.327625814E-1,1.178123907E0,-6.773508898E-1,1.499055920E0
8.992921500E0,5.180065888E-1,2.416578215E-1,3.040481973E-1,6.474369738E-1
9.002871500E0,6.715594420E-1,9.084117293E-2,4.708715987E-1,8.252055897E-1
9.012821500E0,5.329362845E-1,4.064604253E-1,2.200587916E-1,7.054481076E-1
9.022771500E0,6.472002339E-1,7.841233134E-2,7.190313779E-2,6.558861927E-1
9.032721500E0,1.071504900E0,-3.224283350E-1,2.591719866E-2,1.119265153E0
9.042671500E0,1.497552035E0,-3.324498779E-1,-1.171350054E-1,1.538475099E0
9.052621500E0,1.493964476E0,-3.009480035E-1,-2.605085870E-1,1.546080296E0
9.062571500E0,1.212491794E0,-3.391086870E-1,-3.280030704E-1,1.301044606E0
9.072522500E0,1.118211289E0,-2.551841855E-1,-3.828734151E-1,1.209176375E0
9.082472500E0,1.400213144E0,-3.715706742E-1,-3.292508662E-1,1.485620324E0
9.092422500E0,1.593816209E0,-5.136264396E-1,-4.105552304E-1,1.724128134E0
9.102372500E0,1.564579546E0,-4.732824057E-1,-5.872230041E-1,1.736875426E0
9.112322500E0,1.500866091E0,-6.205778611E-1,-4.148774922E-1,1.676257510E0
9.122272500E0,1.361280482E0,-4.537287319E-1,-3.330761147E-1,1.473056011E0
9.132222500E0,1.381263488E0,-7.596877992E-2,-5.877890146E-1,1.503048903E0
9.142172500E0,1.231545385E0,3.643283129E-2,-2.255552474E-1,1.252560001E0
9.152122500E0,1.273821923E0,3.926779532E-1,3.372315846E-2,1.333399984E0
9.162072500E0,1.516522742E0,2.716271406E-1,7.889941172E-1,1.730934501E0
9.172022500E0,1.560393962E0,3.211963266E-1,1.142196275E0,1.960257312E0
9.181972500E0,1.270539150E0,5.950003856E-1,8.944789839E-1,1.663847302E0
9.191922500E0,9.773594651E-1,4.203838152E-1,7.449341047E-1,1.298799791E0
9.201872500E0,1.036708996E0,2.221275365E-1,5.676664797E-1,1.202643512E0
9.211822500E0,1.031631420E0,1.005475509E-1,2.690129236E-1,1.070860005E0
9.221772500E0,9.032981931E-1,-3.650346565E-1,2.953884709E-1,1.018063001E0
9.231722500E0,9.194120961E-1,-8.849959695E-1,5.177510655E-1,1.377171970E0
9.241672500E0,1.245651792E0,-6.549910641E-1,-4.580708742E-3,1.407367281E0
9.251623500E0,1.446684183E0,-6.802481121E-1,-6.657242131E-1,1.731710526E0
9.261573500E0,1.376521834E0,-6.630789328E-1,-6.740461166E-1,1.669977305E0
9.271523500E0,1.232920504E0,-7.065670145E-1,-5.244578218E-1,1.514723051E0
9.281473500E0,1.524197359E0,-6.155936944E-1,-5.866466148E-1,1.745361692E0
9.291423500E0,1.330026676E0,-7.191917378E-1,-2.023335421E-1,1.525498796E0
9.301373500E0,1.072710961E0,-5.658204406E-1,7.231003091E-2,1.214944574E0
9.311323500E0,8.945201337E-1,-5.313283002E-1,2.542882459E-1,1.071045538E0
9.321273500E0,9.026093911E-1,-4.521026212E-1,2.886665118E-1,1.049966118E0
9.331223500E0,9.419216837E-1,-4.577878690E-1,3.260957817E-1,1.096870389E0
9.341173500E0,9.156853002E-1,-5.902816826E-1,3.247356462E-1,1.136822446E0
9.351123500E0,9.519014190E-1,-7.686515808E-1,2.327190368E-1,1.245431537E0
9.361073500E0,1.181693997E0,-9.793688607E-1,1.244999389E-1,1.539826063E0
9.371023500E0,1.314209519E0,-1.209973106E0,8.378482617E-2,1.788351608E0
9.380973500E0,1.069149349E0,-1.104321520E0,-5.989295684E-2,1.538243647E0
9.390923500E0,6.716011034E-1,-9.340622950E-1,-1.035052188E-1,1.155090362E0
9.400873500E0,4.572242705E-1,-1.069784356E0,-2.386380270E-2,1.163641733E0
9.410823500E0,5.030757236E-1,-1.254180980E0,1.088340788E-1,1.355691694E0
9.420774500E0,4.851344195E-1,-1.283361509E0,9.409105539E-2,1.375218272E0
9.430724500E0,2.629099654E-1,-1.231233582E0,6.509727113E-2,1.260672613E0
9.440674500E0,2.216248222E-2,-1.168559031E0,1.778372169E-1,1.182221410E0
9.450624500E0,-6.552079227E-2,-1.085674750E0,-8.202488735E-2,1.090738611E0
9.460574500E0,-6.023198571E-2,-1.289754855E0,3.662171828E-1,1.342091839E0
9.470524500E0,5.219976059E-1,-1.493162531E0,8.171848594E-1,1.780395163E0
9.480474500E0,8.680747122E-1,-1.230765805E0,9.173172580E-1,1.763465090E0
9.490424500E0,6.012959731E-1,-9.671294689E-1,8.495432047E-1,1.420781445E0
9.500374500E0,2.403009203E-1,-7.492318082E-1,4.135349715E-1,8.888779485E-1
9.510324500E0,-2.195222000E-1,-6.957777321E-1,2.117767954E-1,7.597012965E-1
9.520274500E0,-2.772313862E-1,-1.189865701E0,3.803638633E-1,1.279575826E0
9.530224500E0,-2.486302059E-1,-1.463347578E0,4.266514456E-1,1.544420464E0
9.540174500E0,-1.611512368E-1,-1.523003796E0,3.205385149E-1,1.564690136E0
9.550124500E0,-7.165243842E-2,-1.674126254E0,3.147814925E-1,1.704969259E0
9.560074500E0,6.483696497E-2,-1.555164067E0,1.750611050E-1,1.566328668E0
9.570025500E0,1.080971469E-1,-1.309062946E0,-6.327286676E-2,1.315041537E0
9.579975500E0,-9.173258096E-2,-1.194748710E0,2.979916513E-1,1.234762476E0
9.589925500E0,-3.186381698E-1,-1.066981201E0,5.896028209E-1,1.260004227E0
9.599875500E0,-4.652833416E-1,-1.071543199E0,7.689206989E-1,1.398546551E0
9.609825500E0,-7.164236659E-1,-1.045697921E0,5.781610624E-1,1.393203942E0
9.619775500E0,-9.836496804E-1,-1.111506579E0,3.536055426E-1,1.525795022E0
9.629725500E0,-1.038839722E0,-1.144274960E0,1.279721618E-1,1.550783681E0
9.639671875E0,-9.849937360E-1,-1.085334442E0,6.454156637E-2,1.467081840E0
9.649621875E0,-7.884809509E-1,-1.070157409E0,1.852514863E-1,1.342109236E0
9.659571875E0,-5.633731616E-1,-9.930338037E-1,2.793390334E-1,1.175387489E0
9.669521875E0,-4.640548416E-1,-1.088805349E0,4.101179317E-1,1.252613548E0
9.679471875E0,-5.529599284E-1,-1.264186735E0,4.552585097E-1,1.452994527E0
9.689421875E0,-7.239646737E-1,-1.384382100E0,3.277001846E-1,1.596253758E0
9.699371875E0,-7.988528882E-1,-1.433487017E0,1.467722757E-1,1.647602217E0
9.709321875E0,-8.612037221E-1,-1.512343152E0,6.377792001E-2,1.741528433E0
9.719271875E0,-8.516391391E-1,-1.351613719E0,-9.507338762E-2,1.600371150E0
9.729222875E0,-6.114013870E-1,-1.202872247E0,-1.266131958E-1,1.355265362E0
9.739172875E0,-4.110563368E-1,-1.404211763E0,2.036140823E-1,1.477239547E0
9.749122875E0,-3.666518502E-1,-1.571920432E0,5.429712030E-1,1.702992998E0
9.759072875E0,-4.599819636E-1,-1.662306692E0,8.447145009E-1,1.920518038E0
9.769022875E0,-3.838420064E-1,-1.889339458E0,1.104953020E0,2.222129485E0
9.778972875E0,-2.957744602E-1,-1.681987250E0,8.920816986E-1,1.926752034E0
9.788922875E0,-5.755630714E-1,-1.251785960E0,5.051316412E-1,1.467446392E0
9.798872875E0,-1.042398849E0,-9.557595581E-1,1.633045471E-1,1.423636213E0
9.808822875E0,-1.463697826E0,-9.502538198E-1,2.329530716E-3,1.745107182E0
9.818772875E0,-1.512553360E0,-1.395397670E0,8.953720730E-2,2.059846896E0
9.828722875E0,-1.060760348E0,-2.143469975E0,4.109457878E-1,2.426633984E0
9.838672875E0,-6.219382158E-1,-2.700421359E0,6.395158231E-1,2.843952030E0
9.848622875E0,-3.674725800E-1,-2.474993069E0,4.695571446E-1,2.545802565E0
9.858572875E0,-3.063971700E-1,-1.739084727E0,1.968570399E-1,1.776808264E0
9.868522875E0,-5.431208186E-1,-9.473793286E-1,9.016406536E-4,1.092020434E0
9.878473875E0,-1.041423826E0,-5.704619604E-1,1.159906322E-1,1.193081833E0
9.888423875E0,-1.586742539E0,-5.352874500E-1,3.404301578E-1,1.708852607E0
9.898373875E0,-1.871801319E0,-8.779453969E-1,4.869502723E-1,2.124040693E0
9.908323875E0,-1.951698259E0,-1.642656539E0,8.698218602E-1,2.695187687E0
9.918273875E0,-1.566762311E0,-2.313231018E0,1.142039570E0,3.018283661E0
9.928223875E0,-7.047570819E-1,-2.226723216E0,6.223244244E-1,2.417078095E0
9.938173875E0,-2.576252519E-1,-1.534474863E0,-6.714182317E-2,1.557399082E0
9.948123875E0,-3.503177994E-1,-6.975389135E-1,-3.858244318E-1,8.707144128E-1
9.958073875E0,-9.095639232E-1,-1.198357612E-1,-2.426191038E-1,9.489632077E-1
9.968023875E0,-1.460980479E0,-1.346654695E-1,1.949308940E-1,1.480066486E0
9.977973875E0,-1.507091329E0,-7.497229743E-1,5.432788396E-1,1.768773787E0
9.987923875E0,-1.397291290E0,-1.826923939E0,9.467238557E-1,2.487239451E0
9.997873875E0,-1.437522765E0,-2.190509655E0,7.261977985E-1,2.718854077E0
1.000782387E1,-1.684787043E0,-1.539004117E0,-1.710123467E-1,2.288293311E0
1.001777387E1,-2.187780760E0,-8.300192785E-1,-1.064316552E0,2.570619843E0
1.002772487E1,-2.617513981E0,-4.696992320E-1,-1.452082917E0,3.029940858E0
1.003767487E1,-2.582103535E0,-5.907582307E-1,-1.396490368E0,2.994401326E0
1.004762487E1,-2.083365130E0,-4.827870548E-1,-1.420186356E0,2.567181896E0
1.005757487E1,-1.658977141E0,-1.217432984E0,-8.689296482E-1,2.233693569E0
1.006752487E1,-1.340807480E0,-1.409387718E0,-2.015522079E-1,1.955699805E0
1.007747487E1,-1.189324687E0,-7.998032069E-1,3.591166896E-1,1.477546337E0
1.008742487E1,-1.434745923E0,1.961711615E-1,4.280455680E-1,1.510033773E0
1.009737487E1,-2.220602497E0,1.071595239E0,8.986117959E-2,2.467279238E0
1.010732487E1,-3.199847835E0,1.293173137E0,-3.718041243E-1,3.471247793E0
1.011727487E1,-3.496129761E0,7.704753274E-1,-7.071236694E-1,3.649188871E0
1.012722487E1,-2.799211237E0,-4.728175521E-2,-8.072560680E-1,2.913671476E0
1.013717487E1,-2.125588166E0,-7.429086292E-1,-6.024544162E-1,2.330877433E0
1.014712487E1,-1.706924017E0,-1.017621346E0,-1.848883742E-1,1.995827276E0
1.015707487E1,-1.275905140E0,-8.602429515E-1,2.031531756E-1,1.552167219E0
1.016702488E1,-1.023122698E0,-3.300332236E-1,3.022184573E-1,1.116708548E0
1.017697487E1,-1.322635210E0,5.498867780E-1,-5.240874007E-2,1.433347845E0
1.018692587E1,-1.897110554E0,9.112382734E-1,-4.222952700E-1,2.146559326E0
1.019687588E1,-2.344360570E0,5.970802402E-1,-5.407554737E-1,2.478900518E0
1.020682587E1,-2.413268984E0,3.785089803E-1,-4.872158821E-1,2.490886499E0
1.021677587E1,-2.023152257E0,1.505839294E-1,-1.177566375E-1,2.032163183E0
1.022672587E1,-1.155646040E0,-2.400048137E-2,4.905087416E-1,1.255664214E0
1.023667587E1,-3.361327466E-1,1.727279198E-1,1.024267583E0,1.091761989E0
1.024662587E1,-9.053097814E-3,5.208062357E-1,1.214137785E0,1.321155424E0
1.025657587E1,-3.112022656E-1,8.522901535E-1,8.691467991E-1,1.256447975E0
1.026652587E1,-1.098350344E0,5.289093071E-1,5.110747147E-1,1.321860771E0
1.027647587E1,-1.874196923E0,-2.223228335E-1,1.049826640E-1,1.890254721E0
1.028642587E1,-2.601299944E0,-1.216740088E0,8.159292430E-2,2.872955838E0
1.029637587E1,-2.797769898E0,-7.888882095E-1,-5.228317112E-1,2.953508762E0
1.030632587E1,-2.128850182E0,-6.340720654E-3,-4.503551808E-1,2.175974055E0
1.031627587E1,-8.005919232E-1,1.630987251E0,-9.400942826E-1,2.045689150E0
1.032622587E1,1.926940417E-1,2.623465569E0,-6.297538966E-1,2.704864610E0
1.033617687E1,4.863474975E-1,2.166734877E0,7.826503998E-1,2.354530858E0
1.034612687E1,1.436807797E-1,2.193188265E0,1.456691108E0,2.636791216E0
1.035607687E1,-4.554880860E-1,2.112399625E0,1.087463413E0,2.419148248E0
1.036602687E1,-1.320358305E0,1.442008749E0,5.247060362E-1,2.024364520E0
1.037597687E1,-2.487082188E0,9.974461126E-1,-2.101854756E-1,2.687871740E0
1.038592687E1,-3.156524645E0,1.536370531E0,-7.765371358E-1,3.595426562E0
1.039587688E1,-2.172545255E0,1.808282431E0,-6.318021762E-1,2.896379157E0
1.040582687E1,-6.359169350E-1,1.668414109E0,1.073291516E-1,1.788718964E0
1.041577687E1,-3.407618411E-2,2.079941731E0,6.778589398E-1,2.187878318E0
1.042572687E1,-1.487791863E-1,2.393907976E0,1.044229685E0,2.615979028E0
1.043567688E1,-5.586345050E-1,2.365206333E0,1.273281202E0,2.743632360E0
1.044562687E1,-9.670756745E-1,2.493146920E0,1.196568949E0,2.929640622E0
1.045557687E1,-1.393664555E0,2.626776847E0,1.056061234E0,3.155554282E0
1.046552687E1,-1.318114436E0,2.700870425E0,8.765520054E-1,3.130570257E0
1.047547687E1,-8.085330268E-1,2.446055199E0,8.507312858E-1,2.713052785E0
1.048542787E1,-1.572466489E-1,2.389963444E0,9.330130121E-1,2.570440634E0
1.049537787E1,2.647883651E-1,2.480645573E0,1.117304678E0,2.733511492E0
1.050532787E1,2.427663988E-1,2.138267123E0,1.642463289E0,2.707177029E0
1.051527787E1,-5.815339191E-2,1.891867209E0,1.924175414E0,2.699072874E0
1.052522787E1,-6.482960752E-1,1.801481534E0,1.868308777E0,2.675107700E0
1.053517787E1,-1.220357907E0,1.832612695E0,1.465786159E0,2.645046649E0
1.054512787E1,-1.270154403E0,1.914528678E0,1.118996570E0,2.555555828E0
1.055507787E1,-7.999286297E-1,1.851442484E0,1.089010879E0,2.292088518E0
1.056502787E1,-1.427546630E-1,1.752424564E0,1.357104254E0,2.221058915E0
1.057497787E1,3.234724284E-1,1.762570653E0,1.682764053E0,2.458248274E0
1.058492787E1,4.997318472E-1,1.562815733E0,1.971197261E0,2.564711207E0
1.059487787E1,3.773369059E-1,1.287113083E0,2.044522222E0,2.445222760E0
1.060482787E1,-1.770573445E-3,1.165232551E0,1.780992891E0,2.128310529E0
1.061477787E1,-2.013247147E-1,1.235875686E0,1.275201135E0,1.787192851E0
1.062472787E1,-1.110598214E-2,1.082358794E0,9.398963544E-1,1.433537254E0
1.063467887E1,4.501343753E-1,9.119662517E-1,7.774855542E-1,1.280151236E0
1.064462887E1,8.524483207E-1,1.023061595E0,6.848112792E-1,1.497427679E0
1.065457887E1,1.062193940E0,1.175325429E0,8.300046605E-1,1.788450046E0
1.066452888E1,1.246217511E0,1.137642463E0,1.163469030E0,2.049621585E0
1.067447887E1,1.290154220E0,1.187097044E0,1.263632419E0,2.161125677E0
1.068442887E1,1.191646982E0,1.343572043E0,1.170479842E0,2.143649091E0
1.069437887E1,1.162635217E0,1.384251707E0,1.195566736E0,2.167314757E0
1.070432887E1,1.285014517E0,1.387720860E0,1.260932467E0,2.273099686E0
1.071427887E1,1.617039303E0,1.460085416E0,1.250491971E0,2.512050099E0
1.072422887E1,1.898785927E0,1.471902639E0,1.342124857E0,2.751941952E0
1.073417887E1,1.916584851E0,1.487596566E0,1.438676421E0,2.820643700E0
1.074412887E1,1.704420532E0,1.516128055E0,1.439282777E0,2.697263158E0
1.075407887E1,1.503017428E0,1.483108828E0,1.381027552E0,2.523075561E0
1.076402887E1,1.267084323E0,1.432704075E0,1.402862225E0,2.371954062E0
1.077397887E1,1.027249663E0,1.268815976E0,1.468589315E0,2.195880330E0
1.078392887E1,1.035501912E0,9.702401876E-1,1.471436616E0,2.044200564E0
1.079387987E1,1.257774678E0,7.478050876E-1,1.363701375E0,2.000222746E0
1.080382987E1,1.411468888E0,6.679414773E-1,1.254006148E0,2.002728553E0
1.081377987E1,1.398465996E0,6.225741005E-1,1.244469047E0,1.972817493E0
1.082372987E1,1.227963527E0,6.746803933E-1,1.391477404E0,1.974663876E0
1.083367987E1,9.152904669E-1,9.288810772E-1,1.359028281E0,1.883489995E0
1.084362987E1,7.002678090E-1,9.615880626E-1,1.394607126E0,1.833018179E0
1.085357987E1,7.438264959E-1,8.521580064E-1,1.462638311E0,1.848989441E0
1.086352988E1,9.517977771E-1,6.631812590E-1,1.572513925E0,1.954105533E0
1.087347987E1,1.284171495E0,5.749479443E-1,1.658453377E0,2.174886013E0
1.088342987E1,1.651544745E0,5.254401541E-1,1.659128730E0,2.399248954E0
1.089337987E1,1.856847211E0,4.251615751E-1,1.694317274E0,2.549383250E0
1.090332988E1,1.858780593E0,3.566567659E-1,1.684502723E0,2.533736128E0
1.091327987E1,1.679086739E0,5.366317248E-1,1.419317459E0,2.263132329E0
1.092322987E1,1.179715811E0,7.390301710E-1,1.421841702E0,1.989856481E0
1.093318087E1,8.557142830E-1,8.029150951E-1,1.578352370E0,1.966752599E0
1.094313087E1,1.121231960E0,7.629259872E-1,1.335331270E0,1.903241123E0
1.095308087E1,1.495570999E0,3.100117725E-1,1.341895939E0,2.033107135E0
1.096303087E1,1.845605208E0,9.102185190E-2,1.163511423E0,2.183644292E0
1.097298087E1,1.941598071E0,-1.393771559E-1,9.620973551E-1,2.171372925E0
1.098293087E1,1.666246254E0,-4.477055150E-1,7.679671642E-1,1.888541864E0
1.099288087E1,1.273679251E0,-5.802186245E-1,7.511806852E-1,1.588453622E0
1.100283087E1,1.192733175E0,-6.416278374E-1,8.790926206E-1,1.614652453E0
1.101278087E1,1.530051737E0,-9.033626586E-1,8.217276344E-1,1.957641110E0
1.102273087E1,1.815073679E0,-7.352347434E-1,5.082876393E-1,2.023219937E0
1.103268087E1,1.818613584E0,-7.906084603E-1,4.244578627E-1,2.027950093E0
1.104263087E1,1.962285227E0,-6.693079716E-1,4.693890372E-1,2.125761638E0
1.105258087E1,2.161032087E0,-5.680096382E-1,6.944948530E-1,2.339875580E0
1.106253087E1,2.090815213E0,-4.156066400E-1,1.207141153E0,2.449780990E0
1.107248087E1,1.730638131E0,-3.844327945E-1,1.445749067E0,2.287594212E0
1.108243187E1,1.390520799E0,-1.857882607E-1,1.468022719E0,2.030555608E0
1.109238188E1,1.200638611E0,-4.799570024E-2,1.305672730E0,1.774434541E0
1.110233187E1,1.104791052E0,-3.034137744E-1,1.182166672E0,1.646250657E0
1.111228187E1,1.093887164E0,-7.034416777E-1,1.048839484E0,1.670773349E0
1.112223187E1,1.142415253E0,-1.051632845E0,8.701171446E-1,1.779929239E0
1.113218188E1,1.287775280E0,-1.441841519E0,7.066113071E-1,2.058293389E0
1.114213187E1,1.336978138E0,-1.751676121E0,5.177313311E-1,2.263608956E0
1.115208187E1,1.165879545E0,-1.725918551E0,1.584164210E-1,2.088819217E0
1.116203187E1,8.999364826E-1,-1.683791116E0,-1.441006098E-1,1.914628732E0
1.117198187E1,6.565288818E-1,-1.719396567E0,-3.753900754E-1,1.878369622E0
1.118193187E1,4.326933736E-1,-1.727006133E0,-5.521502352E-1,1.864039598E0
1.119188187E1,3.262895438E-1,-1.639539388E0,-6.588402130E-1,1.796837416E0
1.120183187E1,3.595946994E-1,-1.502237409E0,-6.365091848E-1,1.670679360E0
1.121178187E1,7.075376523E-1,-1.526043763E0,-3.508183942E-1,1.718281887E0
1.122173187E1,1.274524905E0,-1.622537439E0,5.122577526E-2,2.063895723E0
1.123168187E1,1.573283418E0,-1.558586442E0,3.542518061E-1,2.242745361E0
1.124163287E1,1.522050407E0,-1.565291444E0,5.695633165E-1,2.256363694E0
1.125158287E1,1.126136020E0,-1.407965090E0,5.762852025E-1,1.892789652E0
1.126153287E1,7.437541366E-1,-1.222694893E0,5.248204223E-1,1.524332474E0
1.127148287E1,4.561602965E-1,-1.132960013E0,4.751575712E-1,1.310517198E0
1.128143287E1,4.448275155E-1,-9.898774767E-1,3.961295281E-1,1.155269467E0
1.129138287E1,7.540037209E-1,-9.370625013E-1,4.604863955E-1,1.287887985E0
1.130133287E1,1.064327442E0,-1.015873613E0,7.159652442E-1,1.636275751E0
1.131128287E1,1.114760847E0,-1.191724530E0,9.577166212E-1,1.892120564E0
1.132123287E1,8.857297951E-1,-1.319611323E0,9.293430072E-1,1.841078417E0
1.133118288E1,6.963580683E-1,-1.429444252E0,6.019193959E-1,1.700156578E0
1.134113287E1,5.141749084E-1,-1.451592920E0,2.056559300E-1,1.553638376E0
1.135108287E1,3.678766957E-1,-1.385356831E0,-4.556502183E-2,1.434093087E0
1.136103287E1,5.270726967E-1,-1.344288327E0,-4.032122970E-2,1.444486945E0
1.137098287E1,9.795702973E-1,-1.353707607E0,7.308553616E-2,1.672550073E0
1.138093287E1,1.337406739E0,-1.414919184E0,2.693660223E-1,1.965505313E0
1.139088387E1,1.368564505E0,-1.486711298E0,4.252387583E-1,2.064971498E0
1.140083387E1,1.121546248E0,-1.516898133E0,3.533460724E-1,1.919296585E0
1.141078387E1,5.653304440E-1,-1.466132022E0,6.824756820E-2,1.572831634E0
1.142073387E1,9.531604707E-2,-1.414517480E0,-2.801774875E-1,1.445145071E0
1.143068387E1,-1.024990591E-1,-1.495728874E0,-4.930863404E-1,1.578241128E0
1.144063387E1,-2.072976820E-1,-1.561518236E0,-5.844572346E-1,1.680149335E0
1.145058387E1,-1.713307276E-1,-1.596783963E0,-4.783583736E-1,1.675678960E0
1.146053387E1,6.831740588E-2,-1.793078501E0,-1.591145054E-1,1.801420329E0
1.147048387E1,2.546684611E-1,-1.932676681E0,8.706153274E-2,1.951326444E0
1.148043387E1,1.494589251E-1,-1.832394594E0,1.199286588E-1,1.842387256E0
1.149038387E1,-1.907858759E-2,-1.837020326E0,1.108724912E-1,1.840462002E0
1.150033387E1,-1.418246542E-1,-1.909891836E0,5.674613155E-2,1.915990914E0
1.151028387E1,-5.848610213E-1,-1.809336684E0,-2.545397492E-1,1.918476514E0
1.152023387E1,-1.071268964E0,-1.645708201E0,-5.720939183E-1,2.045302943E0
1.153018387E1,-1.280280904E0,-1.646143818E0,-4.983359706E-1,2.144119261E0
1.154013387E1,-1.163600446E0,-1.815993739E0,-3.696621430E-1,2.188252581E0
1.155008487E1,-1.294980365E0,-1.841546071E0,-2.866972426E-1,2.269462797E0
1.156003488E1,-1.564741806E0,-1.677446303E0,-3.134505931E-1,2.315274129E0
1.156998487E1,-1.342078664E0,-1.744930188E0,-2.357901406E-1,2.213945233E0
1.157993487E1,-9.091753757E-1,-2.039990630E0,-1.841347412E-1,2.240996929E0
1.158988487E1,-9.965563126E-1,-2.040387656E0,-3.195374715E-1,2.293122427E0
1.159983487E1,-1.525013776E0,-1.827743134E0,-6.184893087E-1,2.459439165E0
1.160978487E1,-2.215212241E0,-1.740897363E0,-8.227967978E-1,2.935112174E0
1.161973487E1,-2.533841786E0,-1.786242521E0,-8.163696114E-1,3.205850259E0
1.162968487E1,-2.072654639E0,-1.926336545E0,-5.734938148E-1,2.887137837E0
1.163963479E1,-1.155957551E0,-2.047997223E0,-3.045522273E-1,2.371346146E0
1.164958479E1,-9.812730065E-1,-1.805483953E0,-3.005609179E-1,2.076777765E0
1.165953479E1,-1.589786308E0,-1.297150998E0,-3.651890230E-1,2.084078750E0
1.166948479E1,-2.342913531E0,-9.661810505E-1,-3.731319539E-1,2.561635628E0
1.167943479E1,-2.676212132E0,-8.514335364E-1,-1.158845052E-3,2.808389536E0
1.168938479E1,-2.498066474E0,-6.103405559E-1,4.072914242E-1,2.603600970E0
1.169933479E1,-2.049639705E0,-2.959959966E-1,7.354043126E-1,2.197602342E0
1.170928579E1,-1.654752236E0,-1.428819770E-1,1.079102406E0,1.980677213E0
1.171923579E1,-1.464047782E0,8.183646083E-2,1.228917500E0,1.913209695E0
1.172918579E1,-1.452903574E0,2.713616771E-1,1.158179054E0,1.877749897E0
1.173913579E1,-1.598589583E0,3.098650074E-1,9.633533370E-1,1.891971096E0
1.174908579E1,-1.420810546E0,2.334448224E-1,7.356815437E-1,1.616918806E0
1.175903579E1,-1.023021542E0,2.840507197E-1,3.994654377E-1,1.134385526E0
1.176898579E1,-7.857504474E-1,4.661961651E-1,2.239841737E-2,9.139170197E-1
1.177893579E1,-6.395456439E-1,4.235553449E-1,-3.211067911E-1,8.315812241E-1
1.178888579E1,-6.301873215E-1,3.035470909E-1,-5.525197427E-1,8.913781255E-1
1.179883579E1,-6.924839956E-1,3.560580111E-1,-6.711644626E-1,1.027994712E0
1.180878579E1,-3.680595674E-1,2.883981246E-1,-6.638706458E-1,8.120132743E-1
1.181873579E1,6.593905091E-2,1.531081724E-1,-5.465649748E-1,5.714222104E-1
1.182868579E1,8.771992922E-2,1.781751859E-1,-5.459404922E-1,5.809407920E-1
1.183863579E1,-2.453029758E-1,2.300142610E-1,-6.185675883E-1,7.040638973E-1
1.184858579E1,-5.275591850E-1,8.266559601E-2,-5.673529959E-1,7.791288189E-1
1.185853679E1,-5.588457356E-1,3.467708784E-1,-5.556854618E-1,8.610138970E-1
1.186848679E1,-3.449751985E-1,4.882536167E-1,-4.961503545E-1,7.768942374E-1
1.187843679E1,-9.021435142E-2,2.750840145E-1,-2.459152523E-1,3.798475426E-1
1.188838679E1,-1.728876950E-1,3.162682933E-1,-2.508560765E-1,4.391407058E-1
1.189833679E1,-4.058543614E-1,4.727976716E-1,-3.923084823E-1,7.363160640E-1
1.190828679E1,-5.090087472E-1,3.864734727E-1,-4.378793422E-1,7.747192835E-1
1.191823679E1,-4.394624028E-1,1.510359192E-1,-4.926185632E-1,6.772090527E-1
1.192818679E1,-3.167688149E-1,-8.208964527E-2,-6.643606424E-1,7.405783248E-1
1.193813679E1,-3.251170309E-1,-2.530394268E-1,-7.485535312E-1,8.544369048E-1
1.194808679E1,-3.176241164E-1,-3.270429575E-1,-7.366567131E-1,8.663170830E-1
1.195803679E1,-1.071658681E-1,-1.857905996E-1,-4.726491523E-1,5.190374662E-1
1.196798679E1,4.141011281E-1,-1.341392201E-1,-2.990686719E-1,5.281241759E-1
1.197793679E1,5.872335291E-1,-8.245568097E-2,-1.132605672E-1,6.037136019E-1
1.198788679E1,2.412406227E-1,2.842273057E-2,-7.363632560E-2,2.538251329E-1
1.199783679E1,-1.160685463E-1,1.348321152E-1,-2.661126316E-1,3.201055129E-1
1.200778679E1,-3.158918788E-1,1.141534370E-1,-4.046531240E-1,5.258924196E-1
1.201773779E1,-3.013862523E-1,-5.583447754E-2,-4.076526360E-1,5.100312085E-1
1.202768779E1,-2.610910428E-1,-1.446788263E-1,-3.485688972E-1,4.589125968E-1
1.203763779E1,-2.971534529E-1,-8.835610628E-2,-2.774363128E-1,4.160263018E-1
1.204758779E1,-1.450064166E-1,-1.329013646E-1,-1.527901570E-1,2.490671910E-1
1.205753779E1,8.992023647E-2,-1.818349582E-1,-4.103466310E-2,2.069624230E-1
1.206748779E1,2.841691259E-1,-1.275125706E-1,1.509400249E-2,3.118322893E-1
1.207743779E1,3.818990497E-1,-7.868831992E-2,5.423409462E-2,3.936750854E-1
1.208738779E1,2.883890614E-1,-4.283670187E-3,6.384110648E-2,2.954019083E-1
1.209733779E1,7.189429387E-2,8.918056369E-2,4.648302555E-2,1.236229513E-1
1.210728779E1,-1.358808133E-1,1.703978044E-1,1.559222180E-2,2.184997129E-1
1.211723779E1,-2.557010794E-1,1.467686212E-1,-3.820450108E-2,2.972938850E-1
1.212718779E1,-3.556172772E-1,2.518746614E-2,-9.475997686E-2,3.688868519E-1
1.213713779E1,-1.285510361E-1,-2.890161753E-2,-1.466668797E-1,1.971594430E-1
1.214708779E1,3.876287363E-1,-7.771885157E-2,-1.557019973E-1,4.248992458E-1
1.215703779E1,6.028524654E-1,-4.405116856E-2,-9.285137258E-2,6.115496528E-1
1.216698879E1,5.657931049E-1,-2.946645856E-2,-1.357730784E-2,5.667225538E-1
1.217693879E1,4.021631603E-1,1.309559959E-1,-1.546202624E-1,4.503244452E-1
1.218688879E1,2.289044595E-1,2.779795557E-1,-1.810988668E-1,4.030715626E-1
1.219683879E1,1.017742968E-1,-1.802486086E-1,1.752874654E-2,2.077373951E-1
1.220678879E1,-1.553985268E-2,2.734117109E-1,-3.212085692E-1,4.221023520E-1
1.221673879E1,-1.288442740E-1,4.982745749E-1,-4.834606540E-1,7.061250618E-1
1.222668879E1,2.085662355E-1,-6.392819345E-2,-1.108280889E-1,2.446825572E-1
1.223663879E1,9.301537237E-1,-4.298364240E-1,4.304139096E-2,1.025571968E0
1.224658879E1,1.295709513E0,-2.971753800E-1,-4.815182090E-2,1.330223646E0
1.225653879E1,1.288803805E0,-1.820238233E-1,-7.338953655E-2,1.303661745E0
1.226648879E1,1.200032547E0,-1.496331722E-1,-1.514428854E-3,1.209326463E0
1.227643879E1,1.135926890E0,-1.962378198E-1,8.739486057E-2,1.156061004E0
1.228638879E1,1.118167873E0,-2.528224951E-1,2.028294225E-1,1.164198600E0
1.229633879E1,1.255159219E0,-3.564053357E-2,9.584642608E-2,1.259317851E0
1.230628879E1,1.373019206E0,-1.020859534E-1,1.005884814E-1,1.380478658E0
1.231623879E1,1.457858358E0,-3.531946295E-1,2.070241054E-1,1.514251108E0
1.232618979E1,1.677997403E0,-4.799920857E-2,2.564230643E-2,1.678879607E0
1.233613979E1,1.753077698E0,-5.913523078E-2,-2.135746680E-2,1.754204815E0
1.234608979E1,1.599624248E0,-2.899131382E-1,2.345949697E-1,1.642523108E0
1.235603979E1,1.558511890E0,-3.807771152E-1,1.148018932E-1,1.608455780E0
1.236598979E1,1.608908603E0,-5.855699962E-1,6.988117062E-2,1.713581773E0
1.237593979E1,1.719910976E0,-7.078095478E-1,-1.135331205E-1,1.863324419E0
1.238588979E1,1.713129082E0,-6.826045400E-1,-4.240693152E-1,1.892246019E0
1.239583979E1,1.545472453E0,-8.934767711E-1,-4.750851023E-1,1.847293073E0
1.240578979E1,1.459427312E0,-1.049466451E0,-5.672875071E-1,1.884972952E0
1.241573979E1,1.410719275E0,-8.266015810E-1,-7.532242870E-1,1.800207175E0
1.242568979E1,1.429990821E0,-7.857839227E-1,-6.487846832E-1,1.755919043E0
1.243563979E1,1.576436237E0,-1.004717710E0,-3.121254679E-1,1.895265468E0
1.244558979E1,1.788359359E0,-1.086184627E0,-4.352550387E-2,2.092826010E0
1.245553979E1,1.761684654E0,-9.231964141E-1,4.409896955E-3,1.988930337E0
1.246548979E1,1.565069981E0,-6.570574701E-1,-4.629836317E-2,1.698031832E0
1.247544079E1,1.359206036E0,-4.899943328E-1,-1.164648048E-1,1.449517004E0
1.248539079E1,1.229099348E0,-4.639619440E-1,-6.638343930E-2,1.315428696E0
1.249534079E1,1.440184857E0,-6.518376607E-1,-9.274498980E-2,1.583548670E0
1.250529079E1,1.426597389E0,-7.601286793E-1,-2.582001428E-1,1.636961525E0
1.251524079E1,1.091400636E0,-6.949830955E-1,-3.919879818E-1,1.351965764E0
1.252519079E1,8.341237316E-1,-7.313112617E-1,-4.013739324E-1,1.179694704E0
1.253514079E1,8.932297263E-1,-9.572383189E-1,-6.431933563E-2,1.310840005E0
1.254509079E1,1.422054833E0,-1.227197834E0,2.491837363E-1,1.894821102E0
1.255504079E1,1.848350184E0,-1.334998271E0,4.215222681E-1,2.318684931E0
1.256499079E1,1.688027278E0,-1.245665095E0,4.241652095E-1,2.140334961E0
1.257494079E1,1.225711179E0,-1.097124767E0,3.426515150E-1,1.680315658E0
1.258489079E1,7.957981566E-1,-1.078587340E0,2.615962787E-1,1.365678574E0
1.259484079E1,5.691866827E-1,-1.156644160E0,1.298760335E-1,1.295633813E0
1.260479079E1,5.047360405E-1,-1.223245701E0,5.184846718E-2,1.324302374E0
1.261474079E1,6.476541241E-1,-1.322011020E0,1.376645064E-1,1.478553522E0
1.262469079E1,8.088798398E-1,-1.444057029E0,3.273528965E-1,1.687230635E0
1.263464179E1,8.710791577E-1,-1.374226656E0,6.108200276E-1,1.737923735E0
1.264459125E1,9.810388255E-1,-1.198455260E0,7.702619040E-1,1.729750152E0
1.265454125E1,8.928542619E-1,-1.015081900E0,8.102135897E-1,1.576079331E0
1.266449125E1,5.780488689E-1,-9.066540563E-1,7.302809823E-1,1.299797056E0
1.267444125E1,2.896136876E-1,-8.573316228E-1,5.680254257E-1,1.068431787E0
1.268439125E1,1.555132784E-1,-8.538671476E-1,3.639014661E-1,9.411151696E-1
1.269434125E1,1.487509735E-2,-1.021147801E0,3.732839084E-1,1.087338483E0
1.270429125E1,6.599459946E-3,-1.158890660E0,5.919440460E-1,1.301333497E0
1.271424125E1,3.666711460E-1,-1.193996758E0,7.014892924E-1,1.432537335E0
1.272419125E1,6.135550627E-1,-1.020403451E0,7.915598023E-1,1.429769190E0
1.273414125E1,6.138697891E-1,-8.914974886E-1,9.894377661E-1,1.466489340E0
1.274409125E1,3.660492946E-1,-7.958908349E-1,1.046501913E0,1.364771249E0
1.275404125E1,-9.196171872E-2,-7.637475210E-1,8.551950502E-1,1.150272058E0
1.276399125E1,-5.014460681E-1,-9.467273641E-1,6.398140311E-1,1.247839275E0
1.277394125E1,-6.188856769E-1,-1.131427458E0,4.923893523E-1,1.380432848E0
1.278389225E1,-5.731915869E-1,-1.194605454E0,4.393223619E-1,1.395935143E0
1.279384225E1,-4.939993466E-1,-1.136723866E0,4.302650249E-1,1.311984944E0
1.280379225E1,-4.142664582E-1,-1.185779666E0,4.715358424E-1,1.341654265E0
1.281374225E1,-3.900577794E-1,-1.358390057E0,7.565279639E-1,1.603029375E0
1.282369225E1,-5.160503297E-1,-1.299606829E0,1.045355859E0,1.745867900E0
1.283364225E1,-9.347941471E-1,-1.106287354E0,1.271265374E0,1.927129331E0
1.284359225E1,-1.386149713E0,-1.058888070E0,1.335569544E0,2.196907139E0
1.285354225E1,-1.685638106E0,-1.244006240E0,1.468997743E0,2.558687499E0
1.286349225E1,-1.698908946E0,-1.275298784E0,1.366862088E0,2.526062264E0
1.287344225E1,-1.736289611E0,-1.031764006E0,9.653086460E-1,2.238539560E0
1.288339225E1,-1.990776078E0,-9.093040144E-1,5.616624856E-1,2.259532680E0
1.289334225E1,-2.186766122E0,-1.183875813E0,2.761791980E-1,2.501955827E0
1.290329225E1,-2.344365102E0,-1.641457275E0,4.672334611E-2,2.862274059E0
1.291324225E1,-2.345267474E0,-2.179561914E0,-3.069205780E-3,3.201683788E0
1.292319325E1,-1.909085213E0,-2.569897472E0,2.470436919E-1,3.210920421E0
1.293314325E1,-9.390870997E-1,-2.388922055E0,6.640314442E-1,2.651371517E0
1.294309325E1,-8.396309316E-2,-1.616927621E0,8.762830335E-1,1.841025987E0
1.295304325E1,2.400074449E-1,-8.653522485E-1,9.851143348E-1,1.332999753E0
1.296299325E1,-1.175721213E-1,-1.982644647E-1,6.207462609E-1,6.621615529E-1
1.297294325E1,-8.887908125E-1,4.571937919E-2,9.452488225E-2,8.949716886E-1
1.298289325E1,-1.660563929E0,-2.680392891E-1,-1.206286619E-1,1.686377448E0
1.299284325E1,-1.862713284E0,-9.037602693E-1,-8.700892607E-2,2.072209921E0
1.300279325E1,-1.249856818E0,-1.442172471E0,8.855547806E-2,1.910456902E0
1.301274325E1,-3.187722903E-1,-1.573029649E0,3.705760263E-1,1.647229383E0
1.302269325E1,4.015502259E-1,-1.364126760E0,5.994904625E-1,1.543202261E0
1.303264325E1,4.762435819E-1,-6.961513692E-1,5.514205392E-1,1.007719847E0
1.304259325E1,-2.369258161E-1,4.398567975E-2,3.018654317E-1,3.862529239E-1
1.305254325E1,-1.224064530E0,1.172735113E-1,2.008138508E-1,1.245958769E0
1.306249325E1,-2.027724780E0,-3.783815110E-1,3.095176828E-1,2.085819155E0
1.307244325E1,-2.205792523E0,-1.024410548E0,3.562082845E-1,2.458011791E0
1.308239425E1,-1.747669609E0,-1.111651590E0,1.486636673E-1,2.076588357E0
1.309234425E1,-1.126537724E0,-9.750916225E-1,-7.741190929E-2,1.491939516E0
1.310229425E1,-7.255891764E-1,-8.182751459E-1,-2.364333344E-1,1.118907766E0
1.311224425E1,-8.126252738E-1,-2.778631961E-1,-4.306480541E-1,9.607421807E-1
1.312219425E1,-1.120965766E0,-3.573058069E-2,-4.673615883E-1,1.215017603E0
1.313214425E1,-1.333893586E0,-4.687332720E-1,-7.900706626E-2,1.416059707E0
1.314209425E1,-1.326825618E0,-1.112211753E0,2.667854999E-1,1.751757890E0
1.315204425E1,-1.417151066E0,-1.880089747E0,6.181489277E-1,2.434165709E0
1.316199425E1,-1.474646884E0,-1.686755655E0,3.658988019E-1,2.270156383E0
1.317194425E1,-1.213650858E0,-7.205594015E-1,-1.722502754E-1,1.421908722E0
1.318189425E1,-1.110754188E0,2.339307261E-1,-5.962307129E-1,1.282181545E0
1.319184425E1,-1.332826030E0,8.309215039E-1,-6.526803175E-1,1.700837255E0
1.320179425E1,-1.886179038E0,8.686144102E-1,-4.391107658E-1,2.122493962E0
1.321174425E1,-2.381161923E0,5.625693887E-1,-2.080468565E-1,2.455544728E0
1.322169425E1,-2.462158138E0,-2.298277348E-1,7.595993601E-2,2.474027768E0
1.323164525E1,-2.270895276E0,-9.373478454E-1,1.117606833E-1,2.459283796E0
1.324159525E1,-1.844058766E0,-7.548006964E-1,-1.304632218E-1,1.996821844E0
1.325154525E1,-1.198338608E0,-1.683968872E-1,-4.508999951E-1,1.291388299E0
1.326149525E1,-7.302361049E-1,7.667085510E-1,-7.457458444E-1,1.295076691E0
1.327144525E1,-7.572237825E-1,1.330398266E0,-7.659161071E-1,1.711716941E0
1.328139525E1,-1.057752395E0,1.378720826E0,-3.633009571E-1,1.775302461E0
1.329134525E1,-1.071560156E0,1.004337056E0,8.464327052E-2,1.471087548E0
1.330129525E1,-1.110954017E0,3.000106949E-1,2.444539601E-1,1.176428061E0
1.331124525E1,-1.296433252E0,-5.578898621E-1,2.437739289E-1,1.432273020E0
1.332119525E1,-1.341079521E0,-9.868971509E-1,2.186892276E-1,1.679370491E0
1.333114525E1,-1.447915606E0,-3.242661148E-1,-7.352873683E-2,1.485602434E0
1.334109525E1,-1.545459004E0,6.058224124E-1,-6.708744407E-1,1.790401308E0
1.335104525E1,-1.530742439E0,7.348090661E-1,-7.252137852E-1,1.846361778E0
1.336099525E1,-1.511579360E0,1.844235206E-1,-3.434031746E-1,1.561028487E0
1.337094625E1,-1.457608974E0,-6.253731626E-1,1.906850114E-1,1.597521921E0
1.338089625E1,-1.456245258E0,-1.130026465E0,4.135384798E-1,1.889080236E0
1.339084625E1,-1.424219911E0,-1.207665794E0,3.229820663E-1,1.895039958E0
1.340079625E1,-1.552904849E0,-8.189300340E-1,-2.744288340E-2,1.755822594E0
1.341074625E1,-1.776672821E0,-3.318294883E-2,-6.473968466E-1,1.891240360E0
1.342069625E1,-1.939571133E0,4.026725990E-1,-9.212364274E-1,2.184664267E0
1.343064625E1,-1.950649999E0,2.071200728E-2,-6.679251051E-1,2.061938009E0
1.344059625E1,-1.911105864E0,-3.570344961E-1,-3.942754126E-1,1.983747050E0
1.345054625E1,-1.969082031E0,-4.927992421E-1,-1.764713073E-1,2.037468345E0
1.346049625E1,-1.816979726E0,-5.305365872E-1,6.145020193E-1,1.990099778E0
1.347044625E1,-1.423695270E0,1.143270993E-1,6.973266596E-1,1.589416049E0
1.348039625E1,-9.569211075E-1,1.084245690E0,3.808045971E-1,1.495425981E0
1.349034625E1,-7.569906248E-1,1.611337098E0,5.566461593E-2,1.781162710E0
1.350029625E1,-8.550938934E-1,1.195234029E0,3.850356424E-1,1.519217693E0
1.351024625E1,-9.858496222E-1,7.304049432E-1,7.204132211E-1,1.422809217E0
1.352019625E1,-1.445520879E0,3.333170199E-1,8.246714151E-1,1.697266565E0
1.353014725E1,-2.044984152E0,-3.408973503E-1,9.020438191E-1,2.260941007E0
1.354009725E1,-2.064187432E0,-2.410883027E-1,4.603623980E-1,2.128597393E0
1.355004725E1,-1.272112197E0,5.507229298E-1,-1.026654124E-2,1.386243337E0
1.355999725E1,-2.835784109E-1,8.694815522E-1,2.944257268E-1,9.607816575E-1
1.356994725E1,2.391678578E-1,1.631750312E0,3.973487091E-1,1.696377418E0
1.357989725E1,2.574857227E-1,2.162947050E0,6.135983321E-1,2.262993980E0
1.358984725E1,9.012693554E-2,1.908905411E0,9.346595880E-1,2.127353115E0
1.359979725E1,-4.265938506E-2,1.419588770E0,9.565761217E-1,1.712334657E0
1.360974725E1,-6.085629293E-1,7.811055654E-1,7.509511819E-1,1.242739885E0
1.361969725E1,-1.801344125E0,5.239871210E-1,2.335296071E-1,1.890486508E0
1.362964725E1,-2.398889511E0,9.809294826E-1,-3.850052369E-1,2.620137891E0
1.363959742E1,-1.587284284E0,1.236818258E0,-4.241593623E-1,2.056478049E0
1.364954742E1,-5.445824398E-1,1.508404468E0,1.109912628E-1,1.607536355E0
1.365949742E1,-1.845673621E-2,1.924776508E0,5.913838828E-1,2.013663367E0
1.366944842E1,4.042074200E-2,2.019375102E0,9.686322033E-1,2.240035264E0
1.367939842E1,-1.183113190E-1,1.990911441E0,1.104744274E0,2.279953036E0
1.368934842E1,-4.385753071E-1,1.709120085E0,1.087075742E0,2.072480021E0
1.369929842E1,-1.001989545E0,1.192700431E0,9.035404140E-1,1.800806110E0
1.370924842E1,-1.675822823E0,1.101137127E0,4.685607791E-1,2.059231485E0
1.371919842E1,-1.905878161E0,1.530984076E0,-6.685647905E-2,2.445557931E0
1.372914842E1,-1.151945265E0,1.573483393E0,6.995608807E-2,1.951338447E0
1.373909842E1,-2.083996081E-2,1.590808108E0,6.418234268E-1,1.715529671E0
1.374904842E1,6.657943066E-1,1.908670937E0,1.058575829E0,2.281860993E0
1.375899842E1,8.659969041E-1,2.131181467E0,1.357125304E0,2.670893890E0
1.376894842E1,6.669278625E-1,1.989832630E0,1.603789512E0,2.641281406E0
1.377889842E1,1.613515953E-1,1.898421938E0,1.551493185E0,2.457065586E0
1.378884842E1,-4.764928926E-1,1.859787630E0,1.460801700E0,2.412425566E0
1.379879842E1,-6.359507027E-1,1.674362481E0,1.446581564E0,2.302286089E0
1.380874942E1,-2.583021402E-1,1.449291456E0,1.349194433E0,1.996870386E0
1.381869942E1,2.171464032E-1,1.294020984E0,1.240653739E0,1.805786412E0
1.382864942E1,5.299089617E-1,1.222517138E0,1.266660107E0,1.838417658E0
1.383859942E1,5.984222493E-1,1.294665347E0,1.324834641E0,1.946652094E0
1.384854942E1,6.493209460E-1,1.175258771E0,1.338879068E0,1.896166667E0
1.385849942E1,6.051999397E-1,9.179637408E-1,1.214508499E0,1.638278148E0
1.386844942E1,2.831386272E-1,9.229502463E-1,9.120855349E-1,1.328120726E0
1.387839942E1,7.406244144E-2,9.462133938E-1,6.491719151E-1,1.149882258E0
1.388834942E1,2.136728282E-1,8.535975909E-1,5.492701891E-1,1.037295843E0
1.389829942E1,6.134924975E-1,7.667962593E-1,4.385601774E-1,1.075492714E0
1.390824942E1,8.786651161E-1,6.817327201E-1,4.827452472E-1,1.212375710E0
1.391819942E1,1.018001634E0,6.800832206E-1,4.990148324E-1,1.322065171E0
1.392814942E1,1.074837082E0,7.231082028E-1,5.527855352E-1,1.408450238E0
1.393809942E1,1.359568271E0,6.263344449E-1,7.999835935E-1,1.697260873E0
1.394805042E1,1.698472306E0,8.167601323E-1,1.001056184E0,2.134014707E0
1.395800042E1,1.628704790E0,1.090236163E0,1.230636581E0,2.314251624E0
1.396795042E1,1.398103030E0,1.139602450E0,1.381335116E0,2.271887438E0
1.397790042E1,1.325482366E0,1.174592189E0,1.385769352E0,2.248761217E0
1.398785042E1,1.454245217E0,1.150903949E0,1.191496489E0,2.204330496E0
1.399780042E1,1.558372580E0,1.025884046E0,1.015171655E0,2.124037820E0
1.400775042E1,1.490346073E0,9.800266725E-1,8.673517039E-1,1.983401794E0
1.401770042E1,1.298628882E0,1.046183240E0,7.781632465E-1,1.840237589E0
1.402765042E1,1.252016048E0,1.051046369E0,8.584265140E-1,1.846385316E0
1.403760042E1,1.559533983E0,9.357153028E-1,1.013153488E0,2.081871601E0
1.404755042E1,1.849212794E0,9.147138584E-1,1.276789824E0,2.426207257E0
1.405750042E1,1.816320890E0,9.601332754E-1,1.519678484E0,2.555445202E0
1.406745042E1,1.517696717E0,9.609793675E-1,1.672100194E0,2.454140119E0
1.407740042E1,1.033584829E0,9.516992515E-1,1.685149425E0,2.194027723E0
1.408735142E1,5.755953772E-1,7.705343843E-1,1.679159829E0,1.935099741E0
1.409730142E1,2.585081814E-1,6.497507894E-1,1.584565329E0,1.732007462E0
1.410725142E1,3.245135982E-1,5.788509607E-1,1.476180462E0,1.618482705E0
1.411720142E1,8.626968817E-1,4.881694168E-1,1.423354377E0,1.734500785E0
1.412715142E1,1.442549617E0,5.754157215E-1,1.400828564E0,2.091500254E0
1.413710142E1,1.736543673E0,7.111307663E-1,1.451458727E0,2.372345533E0
1.414705142E1,1.829325244E0,6.264502198E-1,1.521179464E0,2.460255615E0
1.415700142E1,1.812540812E0,4.641092938E-1,1.464477845E0,2.376004417E0
1.416695142E1,1.631708212E0,4.849160260E-1,1.380346352E0,2.191568227E0
1.417690142E1,1.434619769E0,5.786895776E-1,1.374676599E0,2.069480916E0
1.418685142E1,1.511352488E0,5.490219748E-1,1.404153875E0,2.134773893E0
1.419680142E1,1.875916736E0,4.738694662E-1,1.342642628E0,2.355059468E0
1.420675142E1,2.267400687E0,3.416288370E-1,1.382989001E0,2.677774209E0
1.421670142E1,2.625990104E0,1.821980703E-1,1.364623774E0,2.964998855E0
1.422665142E1,2.627472374E0,5.404347539E-2,1.217834103E0,2.896489543E0
1.423660242E1,2.164184614E0,2.114119291E-2,9.647367883E-1,2.369569383E0
1.424655242E1,1.577257186E0,4.949551105E-2,6.649254835E-1,1.712400635E0
1.425650242E1,1.172901466E0,-2.399422485E-1,4.813217425E-1,1.290325832E0
1.426645242E1,1.195037855E0,-5.282070565E-1,2.808976087E-1,1.336421205E0
1.427640242E1,1.675978359E0,-7.663179570E-1,2.208279929E-1,1.856047326E0
1.428635242E1,2.390946653E0,-1.010495344E0,3.140504444E-1,2.614642312E0
1.429630242E1,2.954561816E0,-9.167369950E-1,4.363703951E-1,3.124141701E0
1.430625242E1,3.046948993E0,-7.024669468E-1,6.071197633E-1,3.185271164E0
1.431620242E1,2.328738126E0,-2.816019058E-1,8.540753084E-1,2.496350441E0
1.432615242E1,1.312078647E0,1.209777224E-1,9.996680546E-1,1.653941415E0
1.433610242E1,5.079142946E-1,1.769987261E-1,1.155197413E0,1.274278832E0
1.434605242E1,3.928136086E-1,2.567161560E-2,1.222100231E0,1.283935566E0
1.435600342E1,9.075562817E-1,-1.501483119E-1,1.115140623E0,1.445593833E0
1.436595342E1,1.362672265E0,-2.703594643E-1,9.972214334E-1,1.710093720E0
1.437590342E1,1.480659137E0,-4.306141037E-1,9.228144448E-1,1.797043819E0
1.438585342E1,1.410934891E0,-7.331566429E-1,8.343846636E-1,1.795676390E0
1.439580342E1,1.386141527E0,-1.012113853E0,6.218588398E-1,1.825505739E0
1.440575342E1,1.614599552E0,-1.240623041E0,3.219294944E-1,2.061483893E0
1.441570342E1,1.944260600E0,-1.517329658E0,1.605837645E-1,2.471482494E0
1.442565342E1,2.091924430E0,-1.705377867E0,8.376077950E-2,2.700273571E0
1.443560342E1,1.792223638E0,-1.515062692E0,-1.673473120E-3,2.346802789E0
1.444555342E1,1.475754200E0,-1.231426540E0,2.883488618E-2,1.922262530E0
1.445550342E1,1.410738717E0,-1.128288673E0,1.460353804E-1,1.812331479E0
1.446545342E1,1.575277904E0,-1.085697554E0,2.161522669E-1,1.925347100E0
1.447540342E1,1.640703861E0,-1.051246344E0,2.657226223E-1,1.966630761E0
1.448535342E1,1.446428952E0,-1.009331748E0,3.420001352E-1,1.796627781E0
1.449530442E1,1.171470945E0,-9.734362757E-1,4.837699717E-1,1.598110054E0
1.450525442E1,1.132236274E0,-1.039120973E0,6.830641311E-1,1.681757409E0
1.451520442E1,1.543149793E0,-1.382313940E0,8.593395567E-1,2.242892682E0
1.452515442E1,1.966583223E0,-1.813463649E0,8.180400878E-1,2.797371903E0
1.453510442E1,1.710710820E0,-1.778233590E0,4.236237574E-1,2.503618041E0
1.454505442E1,1.257956235E0,-1.599247395E0,-6.957026320E-3,2.034722221E0
1.455500442E1,1.095905038E0,-1.625914791E0,-2.299288917E-1,1.974202132E0
1.456495442E1,1.139867183E0,-1.822010524E0,-3.641096270E-1,2.179815442E0
1.457490442E1,1.183747320E0,-2.117832273E0,-3.370031047E-1,2.449498387E0
1.458485442E1,1.119719578E0,-2.293936960E0,-3.241848385E-1,2.573133211E0
1.459480442E1,7.040157281E-1,-2.260432414E0,-2.705109072E-1,2.382932856E0
1.460475442E1,1.467345612E-1,-2.200630016E0,-1.474305260E-1,2.210438703E0
1.461470442E1,-1.124112591E-1,-2.059196979E0,-1.338766801E-1,2.066603846E0
1.462465442E1,3.559961767E-1,-2.047964478E0,6.934432313E-4,2.078675603E0
1.463460542E1,1.330315821E0,-2.278160588E0,2.351831996E-1,2.648597173E0
1.464455550E1,1.596856176E0,-2.274844047E0,3.817448294E-1,2.805457930E0
1.465450550E1,1.142489513E0,-1.898096248E0,4.393808341E-1,2.258563077E0
1.466445550E1,5.280994678E-1,-1.658113654E0,5.421713769E-1,1.822684761E0
1.467440550E1,-3.021300182E-2,-1.681322422E0,6.505905227E-1,1.803060160E0
1.468435550E1,-3.362043750E-1,-1.676799016E0,4.481843289E-1,1.767924635E0
1.469430550E1,-6.859992872E-1,-1.698733676E0,3.105967864E-3,1.832020953E0
1.470425550E1,-9.843544891E-1,-1.949818379E0,-2.140479270E-1,2.194666714E0
1.471420550E1,-5.147226463E-1,-2.466684760E0,-1.767169634E-1,2.526005146E0
1.472415550E1,2.394111751E-1,-2.775280922E0,-9.935822725E-2,2.787359676E0
1.473410550E1,7.275627579E-1,-2.467026238E0,-1.241351458E-1,2.575068069E0
1.474405550E1,5.117836896E-1,-2.059067756E0,4.115029179E-2,2.122115905E0
1.475400550E1,-1.969970807E-2,-1.651131493E0,3.448231709E-1,1.686868788E0
1.476395550E1,-5.014582376E-1,-1.298360202E0,4.832875764E-1,1.473352117E0
1.477390650E1,-9.793912263E-1,-1.200928633E0,3.905649157E-1,1.598116926E0
1.478385650E1,-1.546911014E0,-1.242212899E0,1.341352002E-1,1.988471479E0
1.479380650E1,-1.614033395E0,-1.497241548E0,6.659174636E-2,2.202559991E0
1.480375650E1,-5.703730828E-1,-2.087534925E0,2.495604066E-1,2.178395720E0
1.481370650E1,3.478685470E-1,-2.402039698E0,3.584308843E-1,2.453422087E0
1.482365650E1,1.184281902E-1,-1.938256094E0,2.740145588E-1,1.961108335E0
1.483360650E1,-7.459351480E-1,-1.200847941E0,1.389614554E-1,1.420480661E0
1.484355650E1,-1.438373974E0,-7.809447670E-1,1.964079738E-1,1.648444876E0
1.485350650E1,-1.510582409E0,-7.663360834E-1,4.766755450E-1,1.759644789E0
1.486345650E1,-1.288235895E0,-8.147954679E-1,6.044617653E-1,1.639761385E0
1.487340650E1,-1.122362958E0,-1.120986670E0,7.250091326E-1,1.744118105E0
1.488335650E1,-7.898747809E-1,-1.564693859E0,7.213639784E-1,1.895398383E0
1.489330650E1,-6.039549579E-1,-1.877331616E0,6.183676866E-1,2.066764182E0
1.490325750E1,-8.829012045E-1,-1.701017014E0,4.822293035E-1,1.976238477E0
1.491320750E1,-1.525878872E0,-7.752156651E-1,2.822696579E-1,1.734630168E0
1.492315750E1,-2.221757468E0,-1.332024962E-1,4.482661899E-1,2.270438665E0
1.493310750E1,-2.537766438E0,2.042525983E-1,7.040023526E-1,2.641514135E0
1.494305750E1,-2.141050543E0,2.054986399E-1,8.891053927E-1,2.327409616E0
1.495300750E1,-1.531821835E0,-1.506155044E-1,9.739074882E-1,1.821444197E0
1.496295750E1,-1.306601853E0,-3.809782594E-1,7.940085431E-1,1.575691087E0
1.497290750E1,-1.055417455E0,-6.156580138E-1,5.049609025E-1,1.322091641E0
1.498285750E1,-9.205237980E-1,-6.630070120E-1,5.512828007E-3,1.134448215E0
1.499280750E1,-1.216914335E0,-5.639896774E-1,-5.121774264E-1,1.435719531E0
1.500275750E1,-1.528702346E0,-4.750102580E-1,-8.620023787E-1,1.818134678E0
1.501270750E1,-1.486282551E0,-4.140618056E-1,-9.546082413E-1,1.814320780E0
1.502265750E1,-1.066043746E0,-4.110586756E-1,-7.311299980E-1,1.356454783E0
1.503260750E1,-5.241830027E-1,-5.394190925E-1,-2.472062445E-1,7.917396700E-1
1.504255850E1,-3.577113113E-1,-3.471620572E-1,4.903708935E-2,5.008827331E-1
1.505250850E1,-8.040317671E-1,1.197153085E-1,2.424278998E-1,8.482747929E-1
1.506245850E1,-1.286168319E0,4.126140350E-1,3.453997429E-1,1.394195205E0
1.507240850E1,-1.667262207E0,5.276954252E-1,2.459842129E-1,1.765993761E0
1.508235850E1,-1.957751004E0,5.592569411E-1,3.223917168E-2,2.036319396E0
1.509230850E1,-1.991371909E0,4.779940921E-1,-1.862256324E-1,2.056385280E0
1.510225850E1,-1.785700630E0,2.706266820E-1,-2.213989735E-1,1.819610686E0
1.511220850E1,-1.385152617E0,8.691418290E-2,-7.147757012E-2,1.389716119E0
1.512215850E1,-1.064069434E0,8.113304079E-2,-1.367593575E-1,1.075885427E0
1.513210850E1,-1.168461383E0,4.349802196E-2,-2.330057331E-1,1.192260774E0
1.514205850E1,-1.199541088E0,-2.867123723E-2,-4.182209666E-1,1.270680778E0
1.515200850E1,-8.988458307E-1,-6.004330337E-2,-5.449604623E-1,1.052858457E0
1.516195850E1,-4.125690114E-1,-2.051308501E-1,-3.568976347E-1,5.828102406E-1
1.517190850E1,-3.979863480E-2,-2.657729083E-1,-1.115683830E-1,2.909753842E-1
1.518185950E1,-8.988646880E-2,-8.522843063E-2,-2.101343125E-5,1.238687334E-1
1.519180950E1,-2.759806851E-1,1.227628773E-1,1.371292669E-2,3.023641959E-1
1.520175950E1,-1.988560568E-1,1.525772452E-2,1.928177468E-1,2.774080261E-1
1.521170950E1,1.036348808E-1,-1.624350661E-1,2.442709057E-1,3.111167218E-1
1.522165950E1,-5.974246413E-2,-1.320886016E-2,3.414773941E-2,7.006928081E-2
1.523160950E1,-2.606916779E-1,1.435099679E-1,-1.264296663E-1,3.233260310E-1
1.524155950E1,-2.450696719E-1,1.383351821E-1,-1.806742676E-1,3.344233210E-1
1.525150950E1,-2.722919691E-1,2.007419300E-1,-2.379921838E-1,4.136188081E-1
1.526145950E1,-2.477611452E-1,2.879701084E-1,-3.074688184E-1,4.887222552E-1
1.527140950E1,-1.277901672E-1,2.144881493E-1,-1.326102098E-1,2.827029550E-1
1.528135950E1,1.783821774E-1,1.102118289E-1,1.403939684E-1,2.523436443E-1
1.529130950E1,3.373160769E-1,1.219378352E-1,3.685429859E-1,5.142712357E-1
1.530125950E1,3.520934527E-1,2.767908168E-1,4.102769029E-1,6.073796940E-1
1.531120950E1,3.860982276E-1,3.187247086E-1,3.435332751E-1,6.071839856E-1
1.532116050E1,5.751264305E-1,2.407117420E-1,3.048340631E-1,6.940002593E-1
1.533111050E1,5.593585365E-1,2.528833061E-1,1.429574060E-1,6.302925977E-1
1.534106050E1,3.072612423E-1,2.570687431E-1,-2.768420896E-2,4.015721917E-1
1.535101050E1,3.068279636E-1,2.398603874E-1,-1.323330152E-1,4.113252139E-1
1.536096050E1,3.746613662E-1,2.073948920E-1,-4.511945486E-2,4.306036992E-1
1.537091050E1,2.662900946E-1,1.231324214E-1,9.648139715E-2,3.088376072E-1
1.538086050E1,7.404036820E-4,1.660422134E-1,1.183172576E-1,2.038860914E-1
1.539081050E1,-6.135424912E-2,1.436362678E-1,1.262624542E-1,2.008430448E-1
1.540076050E1,5.205425262E-2,-7.845618546E-2,1.946058802E-1,2.161861856E-1
1.541071050E1,2.235767689E-1,-1.943298733E-1,2.194109384E-1,3.686350922E-1
1.542066050E1,4.050076845E-1,-9.410041094E-2,2.319005910E-1,4.760924238E-1
1.543061050E1,3.185390595E-1,1.000528765E-1,2.053051154E-1,3.919539525E-1
1.544056050E1,9.422875732E-2,1.786242521E-1,1.947204673E-1,2.805383085E-1
1.545051050E1,-1.666514933E-2,1.864437336E-1,1.629513935E-1,2.481776574E-1
1.546046150E1,-9.784730673E-3,1.107807630E-1,9.519504625E-2,1.463906255E-1
1.547041150E1,1.218866721E-2,-2.061494350E-2,2.744683027E-2,3.642619931E-2
1.548036150E1,-1.865115613E-2,-1.787868047E-1,-8.060035944E-2,1.970000129E-1
1.549031150E1,-1.151036096E-1,-2.363608289E-1,-2.465197814E-1,3.603987860E-1
1.550026150E1,-3.398417817E-1,-2.208551824E-1,-3.941023350E-1,5.653194660E-1
1.551021150E1,-3.172822005E-1,-2.033071035E-1,-2.715938115E-1,4.645050823E-1
1.552016150E1,3.324435921E-1,-3.024869907E-1,-7.238968095E-2,4.552552991E-1
1.553011150E1,6.303896351E-1,-2.434306973E-1,-2.490563035E-2,6.762173370E-1
1.554006150E1,4.941363542E-1,-1.092230648E-1,-1.325435150E-1,5.231330593E-1
1.555001150E1,2.339580618E-1,-5.946501374E-2,-2.233741629E-1,3.288897675E-1
1.555996150E1,1.145770678E-1,-1.080109370E-1,-3.303630066E-1,3.659699210E-1
1.556991150E1,8.408149928E-3,-1.871641105E-1,-4.048389924E-1,4.460893531E-1
1.557986150E1,-1.495897566E-1,-2.843366486E-1,-4.972343918E-1,5.920020822E-1
1.558981250E1,-1.589213280E-1,-2.802810198E-1,-4.635450375E-1,5.645240831E-1
1.559976250E1,2.468315841E-1,-3.054877818E-1,-2.652835147E-1,4.739451011E-1
1.560971250E1,5.079011384E-1,-3.766828948E-1,-7.399768353E-2,6.366547155E-1
1.561966250E1,4.507631703E-1,-3.330498022E-1,-1.001394335E-1,5.693307585E-1
1.562961250E1,1.590754022E-1,-2.163750458E-1,-1.794791333E-1,3.230106860E-1
1.563956250E1,-5.604790092E-2,-1.431164503E-1,-2.473922042E-1,2.912500442E-1
1.564951250E1,-1.705622573E-1,-1.223161501E-1,-2.883683038E-1,3.566637111E-1
1.565946250E1,-2.149549033E-1,-1.121349782E-1,-4.003553474E-1,4.680430193E-1
1.566941250E1,-1.832306886E-1,-1.356179810E-1,-4.513150012E-1,5.056193750E-1
1.567936250E1,6.176209241E-2,-1.840001822E-1,-3.072396076E-1,3.634099607E-1
1.568931250E1,6.619860882E-1,-3.318651563E-1,9.870282747E-4,7.405140357E-1
1.569926250E1,8.880609338E-1,-3.763110119E-1,7.288906971E-2,9.672512684E-1
1.570921250E1,6.481517221E-1,-2.973981589E-1,-1.714284858E-2,7.133303562E-1
1.571916250E1,4.751928373E-1,-2.912053728E-1,-1.750773128E-1,5.841753737E-1
1.572911350E1,2.050359790E-1,-1.955712372E-1,-3.249777210E-1,4.311593448E-1
1.573906350E1,-8.758909777E-2,-1.563042605E-1,-2.968128343E-1,3.466997700E-1
1.574901350E1,-9.796249688E-2,-1.301683760E-1,-1.771624482E-1,2.406802650E-1
1.575896350E1,7.268132910E-2,-8.543132901E-2,-8.408295195E-2,1.401821329E-1
1.576891350E1,4.943104550E-2,-3.763443410E-2,2.614874840E-3,6.218212332E-2
1.577886350E1,7.959814668E-2,4.649121165E-2,8.859584212E-2,1.278535137E-1
1.578881350E1,3.410385606E-1,1.905022860E-3,1.619807374E-1,3.775562054E-1
1.579876350E1,3.095469189E-1,-4.329278469E-3,1.299344782E-1,3.357394917E-1
1.580871350E1,-2.677878588E-2,1.085529739E-1,1.748326616E-3,1.118208753E-1
1.581866350E1,-9.997627795E-2,1.671350580E-1,-9.967396776E-2,2.187790749E-1
1.582861350E1,5.460875496E-2,3.546862543E-2,-4.697643919E-3,6.528558315E-2
1.583856350E1,1.635496916E-1,-9.126918912E-3,2.074709058E-2,1.651128221E-1
1.584851350E1,5.326652661E-2,1.226675677E-1,-2.565173507E-2,1.361714601E-1
1.585846350E1,9.650390893E-3,1.685003829E-1,5.230919123E-3,1.688575482E-1
1.586841350E1,7.182105750E-2,1.304525506E-1,1.246006481E-1,1.941686220E-1
1.587836450E1,2.391882500E-1,4.422483087E-2,1.962664711E-1,3.125498077E-1
1.588831450E1,4.335700174E-1,3.105748594E-2,1.565135908E-1,4.620000341E-1
1.589826450E1,4.915096387E-1,1.060673225E-1,3.994115154E-2,5.044078681E-1
1.590821450E1,4.920469978E-1,2.037696183E-1,-1.492444237E-2,5.327804843E-1
1.591816450E1,5.792592426E-1,2.883221108E-1,-4.615090370E-2,6.486916182E-1
1.592811450E1,5.950562266E-1,2.645350528E-1,-1.209099038E-1,6.623367057E-1
