"Time (s)","Acceleration x (m/s^2)","Acceleration y (m/s^2)","Acceleration z (m/s^2)"
1.482486500E-2,2.492124796E0,7.157530785E0,7.868797302E0
1.688431000E-2,2.477767944E0,7.167101860E0,7.883154392E0
1.895361200E-2,2.520838737E0,7.210172653E0,7.896913052E0
2.105676500E-2,2.583650351E0,7.238288403E0,7.901698589E0
2.315842300E-2,2.626721144E0,7.319644451E0,7.934001446E0
2.524778500E-2,2.670390129E0,7.342974663E0,7.962715626E0
2.734581800E-2,2.689532757E0,7.376473904E0,7.990831375E0
2.944524300E-2,2.703889608E0,7.424330235E0,8.023732185E0
3.154575800E-2,2.709273338E0,7.448258877E0,8.057231903E0
3.363941700E-2,2.690130949E0,7.467401028E0,8.075776100E0
3.574680900E-2,2.632703066E0,7.472187042E0,8.099704742E0
3.784747700E-2,2.460419893E0,7.310671329E0,8.178668022E0
3.995099100E-2,2.283350945E0,7.205985546E0,8.313861847E0
4.204783400E-2,2.288734913E0,7.258627415E0,8.332406998E0
4.414125900E-2,2.268994093E0,7.296912670E0,8.217551231E0
4.625308600E-2,2.134397745E0,7.259225845E0,8.132007599E0
4.835177000E-2,2.090728760E0,7.283154011E0,7.950153351E0
5.045498900E-2,1.998006940E0,7.331010342E0,7.615158081E0
5.255248300E-2,1.899901152E0,7.365108013E0,6.998407841E0
5.465100500E-2,1.813161373E0,7.408777237E0,5.812764645E0
5.674420500E-2,1.648056626E0,7.442874908E0,5.387440205E0
5.885485200E-2,1.515254974E0,7.418946743E0,5.589035511E0
6.095532600E-2,1.406381488E0,7.376473904E0,5.919245243E0
6.305924800E-2,1.311266780E0,7.286144733E0,6.087938786E0
6.515896000E-2,1.234696507E0,7.233502865E0,6.145965099E0
6.726820300E-2,1.187438250E0,7.128817081E0,6.314060688E0
6.935829000E-2,1.106082320E0,7.028916359E0,6.348756790E0
7.145782900E-2,1.033699393E0,6.976274490E0,6.320641041E0
7.355557600E-2,9.427721500E-1,6.919445038E0,6.393023968E0
7.565872700E-2,8.225327730E-1,6.824330330E0,6.275177479E0
7.776023800E-2,7.082754970E-1,6.887141705E0,6.384648800E0
7.986143400E-2,5.934200287E-1,6.906284332E0,6.456433773E0
8.196060600E-2,5.270192027E-1,6.849454880E0,6.562315941E0
8.406107000E-2,4.983053207E-1,6.811169624E0,6.591628075E0
8.616167600E-2,4.414757788E-1,6.801598549E0,6.687341213E0
8.825963800E-2,3.942175210E-1,6.830312252E0,6.854240417E0
9.035266500E-2,3.750749528E-1,6.844669342E0,6.902096748E0
9.246330200E-2,2.572284341E-1,7.007380962E0,7.111468792E0
9.456433500E-2,2.147558331E-1,7.069594383E0,7.268796921E0
9.666639700E-2,2.003988922E-1,7.065407276E0,7.254439831E0
9.876131700E-2,2.045863420E-1,7.041478634E0,7.173682213E0
1.008559720E-1,2.231307179E-1,7.036693096E0,7.030112743E0
1.029666180E-1,2.799602449E-1,6.988836765E0,6.886543751E0
1.050674290E-1,3.367897868E-1,6.954739094E0,6.734001160E0
1.071695710E-1,3.792623878E-1,6.935596466E0,6.643074036E0
1.092706960E-1,3.888336718E-1,6.906882763E0,6.614958286E0
1.113803760E-1,3.930211067E-1,6.882954121E0,6.571887493E0
1.134704430E-1,3.786641955E-1,6.849454880E0,6.605985165E0
1.155694120E-1,3.690928817E-1,6.826124668E0,6.634698868E0
1.176670280E-1,3.122633696E-1,6.854838848E0,6.749554634E0
1.197702270E-1,2.985046208E-1,6.859624386E0,6.802196503E0
1.218715570E-1,2.650051117E-1,6.869195461E0,6.859025955E0
1.239719500E-1,2.608176768E-1,6.878767014E0,6.897311211E0
1.260720780E-1,2.895315289E-1,6.878767014E0,6.945167542E0
1.281728670E-1,2.991028428E-1,6.893123627E0,6.911668301E0
1.302742360E-1,3.661018610E-1,6.887740135E0,6.892525673E0
1.323721470E-1,4.372883439E-1,6.873383045E0,6.859025955E0
1.344655000E-1,4.851447940E-1,6.872784615E0,6.768098831E0
1.365756590E-1,5.521438122E-1,6.882356167E0,6.781857491E0
1.386752990E-1,6.281159520E-1,6.863213539E0,6.725028038E0
1.407783570E-1,6.664010882E-1,6.863213539E0,6.667002201E0
1.428753820E-1,7.567301393E-1,6.833901405E0,6.619743824E0
1.449739030E-1,8.141579032E-1,6.786045074E0,6.571887493E0
1.470769910E-1,8.183453679E-1,6.738188744E0,6.491129398E0
1.491703140E-1,8.518448472E-1,6.675975323E0,6.491727829E0
1.512796480E-1,8.416753411E-1,6.570691109E0,6.483353138E0
1.533764810E-1,8.129615188E-1,6.475576401E0,6.455237389E0
1.554723160E-1,8.410771489E-1,6.332006931E0,6.461219311E0
1.575813150E-1,8.171489239E-1,6.189035892E0,6.520441532E0
1.596815030E-1,8.027920127E-1,6.050251961E0,6.593422890E0
1.617841760E-1,7.836494446E-1,5.897709846E0,6.695117950E0
1.638825240E-1,7.890332937E-1,5.778068542E0,6.801598549E0
1.659809530E-1,7.842476368E-1,5.649454117E0,6.907480717E0
1.680820480E-1,7.794619799E-1,5.544169903E0,6.999604225E0
1.701836600E-1,7.794619799E-1,5.458028316E0,7.071987152E0
1.722846240E-1,7.992027402E-1,5.391029358E0,7.163512707E0
1.743825550E-1,8.231309652E-1,5.338387489E0,7.202396393E0
1.764726730E-1,8.757730722E-1,5.285745144E0,7.278966427E0
1.785764440E-1,8.428717852E-1,5.304887772E0,7.326822758E0
1.806875470E-1,8.333004713E-1,5.314459324E0,7.331608772E0
1.827896590E-1,8.374879360E-1,5.324030399E0,7.288537979E0
1.848905610E-1,8.093722463E-1,5.371886730E0,7.297510624E0
1.869854500E-1,7.998009920E-1,5.462814331E0,7.311269760E0
1.890769830E-1,7.812566161E-1,5.544169903E0,7.367500782E0
1.911893480E-1,7.435696125E-1,5.625525951E0,7.409973621E0
1.932896080E-1,7.250252366E-1,5.711069584E0,7.485945702E0
1.953910490E-1,6.873382926E-1,5.849853039E0,7.637889862E0
1.974836090E-1,6.789634228E-1,5.969494343E0,7.751548767E0
1.995991990E-1,7.226324677E-1,6.088537216E0,7.855038643E0
2.016915150E-1,7.710871100E-1,6.155536175E0,7.959724426E0
2.037922330E-1,8.147560954E-1,6.226722717E0,8.020741463E0
2.058914060E-1,8.871390224E-1,6.241079807E0,8.106883049E0
2.079937620E-1,9.349954724E-1,6.254838467E0,8.130212784E0
2.100928920E-1,9.349954724E-1,6.312266350E0,8.148757935E0
2.121848630E-1,9.254241586E-1,6.345765591E0,8.096115112E0
2.142967810E-1,9.493523836E-1,6.374479294E0,8.119445801E0
2.163956280E-1,9.882357717E-1,6.384050846E0,8.129016876E0
2.184989910E-1,9.930213690E-1,6.441478729E0,8.123632431E0
2.205924860E-1,1.031306505E0,6.474380016E0,8.132605553E0
2.226807840E-1,1.055234790E0,6.550950050E0,8.093722343E0
2.247965980E-1,1.045663476E0,6.622735023E0,8.016553879E0
2.268970110E-1,1.031306505E0,6.680162430E0,7.987242222E0
2.290023580E-1,1.002592683E0,6.747161865E0,7.991429329E0
2.311011530E-1,9.643075466E-1,6.828517437E0,8.000402451E0
2.332010980E-1,9.026923180E-1,6.909873486E0,8.018946648E0
2.353014100E-1,8.500502706E-1,7.010372162E0,8.008777618E0
2.374011420E-1,7.782655358E-1,7.086942673E0,7.998608112E0
2.395020930E-1,7.208378315E-1,7.125227451E0,7.965108395E0
2.416041040E-1,6.586244106E-1,7.134799004E0,7.912466049E0
2.437094610E-1,5.862415433E-1,7.173682213E0,7.831110477E0
2.458041060E-1,5.282155871E-1,7.164111137E0,7.740781307E0
2.479050690E-1,4.510470629E-1,7.135995388E0,7.635497093E0
2.500031920E-1,3.978067636E-1,7.083353043E0,7.526623726E0
2.521053140E-1,3.876372576E-1,7.021139622E0,7.426723480E0
2.542030310E-1,4.157529473E-1,6.958926678E0,7.278966427E0
2.562963750E-1,4.247260094E-1,6.911668301E0,7.183851719E0
2.584072560E-1,4.289134443E-1,6.873383045E0,7.088737011E0
2.605073220E-1,4.235295951E-1,6.859025955E0,7.002595425E0
2.626105640E-1,4.618147612E-1,6.863811970E0,6.930810928E0
2.647087290E-1,4.809573591E-1,6.868597507E0,6.921239376E0
2.668084810E-1,5.144568682E-1,6.863213539E0,6.921239376E0
2.689105930E-1,5.431707501E-1,6.906284332E0,6.930212498E0
2.710110260E-1,5.718846321E-1,6.973283291E0,6.920042992E0
2.731108690E-1,5.964110494E-1,7.020541668E0,6.948158741E0
2.752085570E-1,6.011967063E-1,7.101897717E0,6.970890522E0
2.773017780E-1,5.970092416E-1,7.207181931E0,6.989434719E0
2.794128190E-1,5.258227587E-1,7.331608772E0,7.040880680E0
2.815138940E-1,5.024927258E-1,7.469794273E0,7.077969551E0
2.836156500E-1,4.211367965E-1,7.622934818E0,7.115057945E0
2.857127470E-1,3.547359705E-1,7.761718273E0,7.123433113E0
2.878131910E-1,2.877369225E-1,7.905287743E0,7.098308563E0
2.899155460E-1,2.117647976E-1,8.024929047E0,7.097710133E0
2.920158580E-1,1.686939895E-1,8.134998322E0,7.067800045E0
2.941165460E-1,1.160518974E-1,8.216354370E0,7.071987152E0
2.962171220E-1,4.486542568E-2,8.312067986E0,7.071389198E0
2.983157860E-1,2.093719877E-2,8.355138779E0,7.118647575E0
3.004076630E-1,4.007977992E-2,8.335995674E0,7.095317364E0
3.025185130E-1,2.572284266E-2,8.350353241E0,7.080362320E0
3.046193330E-1,4.486542568E-2,8.340781212E0,7.070790768E0
3.067226670E-1,1.256231815E-1,8.206783295E0,7.043273449E0
3.088177190E-1,1.776670814E-1,8.072785378E0,6.943971157E0
3.109111830E-1,2.057827413E-1,7.982456207E0,6.859025955E0
3.130217180E-1,2.769692242E-1,7.838887215E0,6.841079712E0
3.151226910E-1,3.481557071E-1,7.700103283E0,6.808776855E0
3.172246100E-1,3.337987661E-1,7.609176159E0,6.766304016E0
3.193254790E-1,3.044866920E-1,7.518846989E0,6.748358250E0
3.214345590E-1,2.518445849E-1,7.470990658E0,6.787241459E0
3.235244650E-1,2.566302419E-1,7.356134892E0,6.811768055E0
3.256245020E-1,2.422732860E-1,7.270591736E0,6.841678143E0
3.277223720E-1,2.039881349E-1,7.227520943E0,6.879963398E0
3.298257130E-1,9.391828626E-2,7.247261524E0,6.904489517E0
3.319247020E-1,4.606183618E-2,7.228118896E0,6.966702938E0
3.340165410E-1,3.649054468E-2,7.189833641E0,6.991229534E0
3.361275140E-1,1.256231871E-2,7.175477028E0,6.952944279E0
3.382285470E-1,7.776673418E-3,7.185048103E0,6.909873486E0
3.403308620E-1,4.067798331E-2,7.180262566E0,6.876374245E0
3.424275100E-1,9.332008660E-2,7.180262566E0,6.857231617E0
3.445239060E-1,2.033899277E-1,7.155735970E0,6.823731899E0
3.466304630E-1,3.463610709E-1,7.079165936E0,6.747161865E0
3.487314970E-1,4.564309120E-1,7.068996429E0,6.656234264E0
3.508324480E-1,5.515456200E-1,7.078567505E0,6.541378975E0
3.529317130E-1,6.466603279E-1,7.058826923E0,6.421737671E0
3.550308130E-1,7.411768436E-1,7.025327206E0,6.254240036E0
3.571312670E-1,8.075776696E-1,7.025327206E0,6.067600250E0
3.592319550E-1,8.877372146E-1,6.967301369E0,5.843272686E0
3.613340770E-1,9.445667267E-1,6.905087948E0,5.666802406E0
3.634370840E-1,9.720842242E-1,6.962515831E0,5.436492920E0
3.655425230E-1,1.004985452E0,6.938587666E0,5.288736343E0
3.676229270E-1,9.996016622E-1,6.972086906E0,5.202594757E0
3.697262990E-1,1.080957651E0,6.976274490E0,5.101497650E0
3.718342910E-1,1.089930773E0,6.990631580E0,5.034498692E0
3.739397290E-1,1.113858938E0,7.000202656E0,4.981856823E0
3.760376500E-1,1.109073281E0,7.033702374E0,4.943571568E0
3.781280740E-1,1.089332461E0,7.067201614E0,4.909473896E0
3.802390250E-1,1.070788145E0,7.134200573E0,4.918447018E0
3.823403430E-1,1.027717352E0,7.186842918E0,4.956133842E0
3.844425470E-1,9.852447510E-1,7.201199532E0,5.023132801E0
3.865408340E-1,9.236295223E-1,7.268198967E0,5.113461971E0
3.886408200E-1,9.050851464E-1,7.325626373E0,5.203791142E0
3.907417820E-1,8.530412912E-1,7.421339512E0,5.327619553E0
3.928420730E-1,8.009973764E-1,7.493124008E0,5.417948723E0
3.949430760E-1,7.058826685E-1,7.575078487E0,5.517848969E0
3.970434090E-1,5.533402562E-1,7.718647480E0,5.569294930E0
3.991451240E-1,4.103690982E-1,7.838288784E0,5.654838085E0
4.012446410E-1,2.434697002E-1,7.992027760E0,5.758925915E0
4.033457050E-1,9.571290761E-2,8.130811691E0,5.815755367E0
4.054460980E-1,-9.032905847E-2,8.260622025E0,5.900700569E0
4.075458400E-1,-2.955136001E-1,8.399405479E0,5.928816319E0
4.096438110E-1,-4.965106845E-1,8.543573380E0,5.937789440E0
4.117367570E-1,-6.544370055E-1,8.592027664E0,5.918646812E0
4.138480960E-1,-8.075776696E-1,8.650053978E0,5.880361557E0
4.159475230E-1,-9.080761671E-1,8.654839516E0,5.827719688E0
4.180499700E-1,-1.009172916E0,8.621937752E0,5.813961029E0
4.201500470E-1,-1.004387259E0,8.578866959E0,5.819344521E0
4.222530340E-1,-8.225327730E-1,8.425128937E0,5.824728489E0
4.243512090E-1,-6.412764788E-1,8.257631302E0,5.792425632E0
4.264508180E-1,-3.882354796E-1,8.008178711E0,5.779862881E0
4.285507030E-1,-1.208375469E-1,7.773084164E0,5.785845280E0
4.306496200E-1,6.999006122E-2,7.576872826E0,5.753541946E0
4.327435030E-1,2.997010350E-1,7.389634609E0,5.783452511E0
4.348534780E-1,3.523431420E-1,7.322635651E0,5.812764645E0
4.369554580E-1,4.432703853E-1,7.303493023E0,5.822335720E0
4.390620970E-1,5.958128572E-1,7.221538544E0,5.736792088E0
4.411549400E-1,6.813562512E-1,7.211967468E0,5.554937840E0
4.432553230E-1,6.801598072E-1,7.274180889E0,5.338985443E0
4.453549530E-1,7.034898400E-1,7.326224804E0,5.147559643E0
4.474566990E-1,6.598208547E-1,7.417151928E0,4.945964336E0
4.495583930E-1,6.209374666E-1,7.475177765E0,4.782654285E0
4.516573210E-1,5.916253924E-1,7.518248558E0,4.672584534E0
4.537554860E-1,5.479564071E-1,7.575676441E0,4.438087940E0
4.558480360E-1,4.701896608E-1,7.585247993E0,4.184448719E0
4.579591400E-1,3.158525825E-1,7.619345665E0,3.969692707E0
4.600596950E-1,1.950150430E-1,7.639086246E0,3.778266907E0
4.621627130E-1,1.734796353E-2,7.716254711E0,3.605983734E0
4.642572770E-1,-5.503492057E-2,7.682755470E0,3.486940861E0
4.663475380E-1,-1.746760458E-1,7.726424217E0,3.410370588E0
4.684625180E-1,5.682953820E-2,7.625327587E0,3.946362734E0
4.705626970E-1,-8.374879137E-3,7.587042332E0,4.305285931E0
4.726677490E-1,-2.656033039E-1,7.668996811E0,4.506283283E0
4.747645510E-1,-4.037888348E-1,7.645666599E0,4.668995380E0
4.768646590E-1,-5.180460811E-1,7.593622684E0,4.846662045E0
4.789647670E-1,-5.892325640E-1,7.517052174E0,5.039284706E0
4.810651590E-1,-7.746763229E-1,7.498507977E0,5.292923450E0
4.831663040E-1,-1.122832060E0,7.581060410E0,5.546562672E0
4.852645210E-1,-1.447657704E0,7.667799950E0,5.666203976E0
4.873631840E-1,-1.658226132E0,7.811967850E0,5.593821049E0
4.894571980E-1,-1.760519266E0,8.175676346E0,5.093721390E0
4.915682920E-1,-1.698305845E0,8.118248940E0,5.146363258E0
4.936689190E-1,-1.610369682E0,7.969295979E0,5.544169903E0
4.957717840E-1,-1.512862086E0,7.830512047E0,5.975476265E0
4.978673550E-1,-1.405783296E0,7.715656757E0,6.406782627E0
4.999588150E-1,-1.222134113E0,7.628916740E0,6.866204739E0
5.020583950E-1,-1.104885817E0,7.575676441E0,7.329813957E0
5.041616570E-1,-9.403793216E-1,7.512865067E0,7.803592682E0
5.062745310E-1,-6.945167780E-1,7.454838753E0,8.123632431E0
5.083728490E-1,-6.388836503E-1,7.746165276E0,8.641678810E0
5.104677570E-1,-3.212364316E-1,7.692326546E0,8.990432739E0
5.125715580E-1,-1.525424421E-1,7.701299667E0,9.305686951E0
5.146619310E-1,-4.965107143E-2,7.877171993E0,9.743574142E0
5.167677150E-1,5.682953820E-2,7.905886173E0,9.938589096E0
5.188740900E-1,1.148554832E-1,7.967501163E0,9.981060982E0
5.209726810E-1,3.110669553E-1,7.942974567E0,1.002353382E1
5.230707760E-1,4.151547253E-1,7.919046402E0,9.799206734E0
5.251772210E-1,4.959124923E-1,7.913662910E0,9.650852203E0
5.272781940E-1,4.570291340E-1,7.966304779E0,9.425328255E0
5.293798970E-1,6.999006271E-1,7.946564198E0,9.133403778E0
5.314767200E-1,8.512466550E-1,8.060821533E0,8.711071014E0
5.335705210E-1,9.744769931E-1,8.213363647E0,8.350951195E0
5.356794900E-1,1.025922656E0,8.423334122E0,8.014161110E0
5.377768810E-1,1.081555843E0,8.599804878E0,7.548757076E0
5.398702440E-1,1.200000525E0,8.761918068E0,7.088139057E0
5.419779820E-1,1.231107235E0,8.972486496E0,6.555137634E0
5.440687520E-1,1.248455167E0,9.110671997E0,6.071189404E0
5.461840270E-1,1.055234790E0,9.350552559E0,5.615356445E0
5.482820400E-1,1.034895778E0,9.465408325E0,5.241477966E0
5.503882910E-1,9.230313301E-1,9.608977318E0,4.752744198E0
5.524817250E-1,7.609176040E-1,9.748359680E0,3.795614958E0
5.545749160E-1,3.655036688E-1,1.007019424E1,1.015753269E0
5.566849430E-1,2.985046208E-1,1.027657509E1,-3.230908871E0
5.587856400E-1,4.666004181E-1,1.033938694E1,-8.357531548E0
5.608886870E-1,4.851447940E-1,1.044467068E1,-1.060499001E1
5.629865780E-1,3.583251834E-1,1.048774147E1,-7.990232944E0
5.650850690E-1,2.327020019E-1,1.032443142E1,-2.963510752E0
5.671787070E-1,3.008974493E-1,9.979865074E0,1.509272933E0
5.692883360E-1,4.713860750E-1,9.510273933E0,4.491926193E0
5.713889120E-1,6.735795736E-1,8.979066849E0,6.078966141E0
5.734917060E-1,8.482556343E-1,8.467002869E0,6.776473522E0
5.755858930E-1,9.678967595E-1,7.984251022E0,7.105486870E0
5.776741710E-1,9.595218897E-1,7.654639721E0,7.490731239E0
5.797912960E-1,8.123632669E-1,7.516454220E0,7.918448448E0
5.818919640E-1,5.844469070E-1,7.545766354E0,8.210372925E0
5.839973510E-1,3.888336718E-1,7.728219032E0,8.247461319E0
5.860932380E-1,2.398804724E-1,7.962715626E0,8.059026718E0
5.881951670E-1,1.477568001E-1,8.201997757E0,7.722237110E0
5.902940030E-1,1.136590764E-1,8.440681458E0,7.457231998E0
5.923971530E-1,1.417747438E-1,8.636893272E0,7.230511665E0
5.945048190E-1,2.231307179E-1,8.842078209E0,7.032505512E0
5.965956390E-1,3.182454109E-1,9.013762474E0,6.844070911E0
5.986973240E-1,4.325026870E-1,9.171091080E0,6.651448727E0
6.007953350E-1,5.371887088E-1,9.323633194E0,6.362515450E0
6.028968880E-1,6.604190469E-1,9.466604233E0,6.026323795E0
6.049963040E-1,7.836494446E-1,9.609575272E0,5.704489231E0
6.070974300E-1,8.404789567E-1,9.771689415E0,5.439484119E0
6.091951270E-1,9.732806087E-1,9.814162254E0,5.194818020E0
6.112896190E-1,1.116251707E0,9.785448074E0,5.065605640E0
6.134003470E-1,1.264008522E0,9.736993790E0,4.980062008E0
6.155010040E-1,1.364507079E0,9.626923561E0,4.990231514E0
6.176045100E-1,1.383649707E0,9.526425362E0,5.005186558E0
6.197043320E-1,1.426720500E0,9.449854851E0,5.010570526E0
6.218112150E-1,1.469193101E0,9.416355133E0,5.001597404E0
6.238923110E-1,1.555334687E0,9.387042999E0,4.972883701E0
6.260032130E-1,1.646261930E0,9.410971642E0,4.919643402E0
6.281008990E-1,1.713261008E0,9.419944763E0,4.871787071E0
6.302069680E-1,1.727617979E0,9.443872452E0,4.856831551E0
6.323054480E-1,1.737189293E0,9.496515274E0,4.856233597E0
6.344072140E-1,1.727617979E0,9.520442963E0,4.865804672E0
6.365060000E-1,1.689332843E0,9.563513756E0,4.917848587E0
6.386066680E-1,1.632503271E0,9.558728218E0,4.980660439E0
6.407070390E-1,1.566102386E0,9.573683739E0,5.076373100E0
6.428077270E-1,1.494317770E0,9.544969559E0,5.133800983E0
6.449088820E-1,1.417747378E0,9.483354568E0,5.177470207E0
6.470087270E-1,1.341177106E0,9.421140671E0,5.240880013E0
6.491096280E-1,1.255035520E0,9.364311218E0,5.260620594E0
6.512106700E-1,1.202393413E0,9.317052841E0,5.275575638E0
6.533108290E-1,1.149751306E0,9.269196510E0,5.285745144E0
6.554126780E-1,1.101894855E0,9.273982048E0,5.290530682E0
6.575113520E-1,1.063011408E0,9.259625435E0,5.271388054E0
6.596126080E-1,1.019940615E0,9.288937569E0,5.209175110E0
6.617121350E-1,9.864411354E-1,9.269794464E0,5.157131195E0
6.638132000E-1,9.427721500E-1,9.269794464E0,5.109274387E0
6.659142740E-1,8.847461939E-1,9.260822296E0,5.023731232E0
6.680155630E-1,8.225327730E-1,9.241679192E0,4.951946259E0
6.701147850E-1,7.884350419E-1,9.208179474E0,4.885545731E0
6.722154940E-1,7.639086246E-1,9.165707588E0,4.823930264E0
6.743141870E-1,7.256234884E-1,9.103493690E0,4.757529736E0
6.764070320E-1,6.915257573E-1,9.050851822E0,4.686343193E0
6.785164690E-1,6.807580590E-1,9.003593445E0,4.543372154E0
6.806175010E-1,6.658028960E-1,8.927022934E0,4.367499352E0
6.827206410E-1,6.454638839E-1,8.898308754E0,4.191029072E0
6.848198940E-1,6.065805554E-1,8.860622406E0,4.019343853E0
6.869204300E-1,5.958128572E-1,8.846264839E0,3.870988846E0
6.890225210E-1,5.569294691E-1,8.846264839E0,3.747160196E0
6.911200140E-1,5.132604837E-1,8.846264839E0,3.617947817E0
6.932207740E-1,4.983053207E-1,8.855836868E0,3.469592810E0
6.953211570E-1,4.881358147E-1,8.870791435E0,3.345165968E0
6.974209490E-1,4.348955154E-1,8.880363464E0,3.206980467E0
6.995186050E-1,3.726821244E-1,8.894720078E0,3.111267567E0
7.016272770E-1,2.955136001E-1,8.919246674E0,3.034697294E0
7.037368360E-1,2.374876440E-1,8.924032211E0,2.948555708E0
7.058253780E-1,2.231307179E-1,8.933603287E0,2.895913601E0
7.079238680E-1,2.225325108E-1,8.919246674E0,2.834298372E0
7.100195410E-1,2.273181528E-1,8.895318031E0,2.762513638E0
7.121260880E-1,2.219343036E-1,8.837890625E0,2.676970243E0
7.142265220E-1,1.974078715E-1,8.776275635E0,2.581855536E0
7.163277180E-1,1.537388563E-1,8.737990379E0,2.462812662E0
7.184283850E-1,1.292124242E-1,8.694919586E0,2.334198475E0
7.205280040E-1,9.511470050E-2,8.676374435E0,2.224726915E0
7.226283460E-1,6.101697683E-2,8.638090134E0,2.167897224E0
7.247274470E-1,3.708875179E-2,8.633303642E0,2.172683001E0
7.268296820E-1,3.708875179E-2,8.599804878E0,2.230708838E0
7.289302480E-1,1.854437590E-2,8.561519623E0,2.335993052E0
7.310347490E-1,1.375873014E-2,8.514261246E0,2.437089920E0
7.331438700E-1,2.392822690E-2,8.471190453E0,2.547159672E0
7.352312730E-1,1.495514158E-2,8.461619377E0,2.623729944E0
7.373306780E-1,-1.375873014E-2,8.466404915E0,2.662015200E0
7.394290460E-1,5.982056609E-4,8.480761528E0,2.695514679E0
7.415361330E-1,1.196411322E-3,8.538188934E0,2.690130949E0
7.436386830E-1,2.991028316E-2,8.590232849E0,2.703889608E0
7.457352810E-1,4.426721856E-2,8.642875671E0,2.665006161E0
7.478348500E-1,6.340979785E-2,8.709874153E0,2.626122952E0
7.499353950E-1,7.238288224E-2,8.748159409E0,2.548954248E0
7.520372930E-1,9.152546525E-2,8.766703606E0,2.481955290E0
7.541373800E-1,1.154536903E-1,8.752346992E0,2.448455811E0
7.562379560E-1,1.244267747E-1,8.709276199E0,2.410768747E0
7.583378510E-1,1.483550072E-1,8.685347557E0,2.429911375E0
7.604389860E-1,1.818545163E-1,8.642276764E0,2.435295343E0
7.625388600E-1,1.968096644E-1,8.613563538E0,2.531008244E0
7.646407680E-1,2.015953064E-1,8.589634895E0,2.617149830E0
7.667454030E-1,1.830509305E-1,8.608778000E0,2.684148788E0
7.688421440E-1,1.543370634E-1,8.637491226E0,2.708076954E0
7.709413460E-1,1.256231815E-1,8.661419868E0,2.688336134E0
7.730409050E-1,1.208375469E-1,8.666205406E0,2.650051117E0
7.751403720E-1,1.202393398E-1,8.642875671E0,2.598007202E0
7.772367670E-1,1.585244983E-1,8.627920151E0,2.545365095E0
7.793435470E-1,1.866401732E-1,8.613563538E0,2.492722988E0
7.814441230E-1,2.057827413E-1,8.618349075E0,2.444866419E0
7.835464090E-1,2.297109663E-1,8.623134613E0,2.387438774E0
7.856427730E-1,2.482553422E-1,8.647063255E0,2.325225353E0
7.877307250E-1,2.626122832E-1,8.666205406E0,2.319841623E0
7.898465690E-1,2.919243574E-1,8.708678246E0,2.314457655E0
7.919469310E-1,3.110669553E-1,8.775676727E0,2.294716835E0
7.940511700E-1,3.254238665E-1,8.804390907E0,2.342573404E0
7.961499250E-1,3.349951804E-1,8.842676163E0,2.337189436E0
7.982548950E-1,3.547359705E-1,8.890532494E0,2.370090723E0
8.003495090E-1,3.499503136E-1,8.928219795E0,2.365305185E0
8.024504300E-1,3.547359705E-1,8.947361946E0,2.379063845E0
8.045484330E-1,3.690928817E-1,8.952147484E0,2.398206472E0
8.066491520E-1,3.786641955E-1,8.961718559E0,2.398206472E0
8.087468900E-1,3.930211067E-1,8.928219795E0,2.384447813E0
8.108363970E-1,4.121637046E-1,8.894720078E0,2.370090723E0
8.129530150E-1,4.169493318E-1,8.880363464E0,2.341377020E0
8.150527570E-1,4.067798555E-1,8.827720642E0,2.313261271E0
8.171573810E-1,4.348955154E-1,8.736793518E0,2.271386862E0
8.192580690E-1,4.253242314E-1,8.646464348E0,2.252842426E0
8.213678200E-1,3.960121572E-1,8.569893837E0,2.215753794E0
8.234553850E-1,3.577269912E-1,8.527421951E0,2.215753794E0
8.255552190E-1,3.290131092E-1,8.508278847E0,2.197209358E0
8.276526620E-1,2.859423161E-1,8.532207489E0,2.240280151E0
8.297592080E-1,2.386840582E-1,8.589634895E0,2.306680918E0
8.318681760E-1,1.770688742E-1,8.647063255E0,2.387438774E0
8.339582340E-1,1.339980662E-1,8.690134048E0,2.449054003E0
8.360593090E-1,8.195417374E-2,8.771489143E0,2.520240545E0
8.381560700E-1,4.426721856E-2,8.814560890E0,2.601596355E0
8.402594930E-1,2.572284266E-2,8.848059654E0,2.682354212E0
8.423598460E-1,4.007977992E-2,8.862417221E0,2.763710260E0
8.444611740E-1,7.896314561E-2,8.886344910E0,2.849253654E0
8.465609260E-1,9.870393574E-2,8.881559372E0,2.921038151E0
8.486616350E-1,1.513460279E-1,8.890532494E0,2.982653379E0
8.507626260E-1,1.902294010E-1,8.900103569E0,3.040081263E0
8.528635790E-1,2.285145670E-1,8.885746956E0,3.054438114E0
8.549631180E-1,2.667997181E-1,8.871390343E0,3.059223652E0
8.570642540E-1,3.146561682E-1,8.870791435E0,3.035295486E0
8.591640970E-1,3.571287692E-1,8.861220360E0,2.982653379E0
8.612649560E-1,4.336991012E-1,8.870791435E0,2.929413080E0
8.633628470E-1,4.911268353E-1,8.889336586E0,2.881556749E0
8.654558640E-1,5.341976285E-1,8.937192917E0,2.813959360E0
8.675659620E-1,5.862415433E-1,8.994620323E0,2.765504837E0
8.696682570E-1,6.107679605E-1,9.056235313E0,2.760120869E0
8.717700230E-1,6.394818425E-1,9.094520569E0,2.721237659E0
8.738686960E-1,6.490531564E-1,9.151947975E0,2.725425005E0
8.759700460E-1,6.442674994E-1,9.218947411E0,2.729612350E0
8.780698590E-1,6.400800347E-1,9.276374817E0,2.743371248E0
8.801698140E-1,6.209374666E-1,9.309874535E0,2.772084951E0
8.822700340E-1,6.065805554E-1,9.329017639E0,2.815155745E0
8.843710060E-1,5.976074338E-1,9.357730865E0,2.867199659E0
8.864722340E-1,5.688936114E-1,9.391230583E0,2.915056229E0
8.885707240E-1,5.407779217E-1,9.376873970E0,2.986840963E0
8.906728450E-1,5.120640397E-1,9.352945328E0,3.010769129E0
8.927729530E-1,4.833501875E-1,9.319445610E0,3.044866800E0
8.948745060E-1,4.546363056E-1,9.262616158E0,3.078964472E0
8.969719790E-1,4.450650215E-1,9.219545364E0,3.098705292E0
8.990662580E-1,4.307080805E-1,9.181260109E0,3.127419233E0
9.011757040E-1,4.259224236E-1,9.181260109E0,3.146561861E0
9.032769420E-1,4.354937077E-1,9.190832138E0,3.146561861E0
9.053786060E-1,4.211367965E-1,9.200403214E0,3.156133175E0
9.074770450E-1,4.360919297E-1,9.238688469E0,3.189034462E0
9.095778140E-1,4.456632137E-1,9.253045082E0,3.241676569E0
9.116786950E-1,4.797609448E-1,9.276374817E0,3.298506021E0
9.137791590E-1,5.276173949E-1,9.262018204E0,3.346362352E0
9.158792470E-1,5.563312769E-1,9.218947411E0,3.342175007E0
9.179799040E-1,5.850451589E-1,9.218947411E0,3.327219963E0
9.200812420E-1,6.089733839E-1,9.223732948E0,3.312862873E0
9.221809130E-1,6.131607890E-1,9.199805260E0,3.289532900E0
9.242809500E-1,6.131607890E-1,9.185447693E0,3.279961586E0
9.263800720E-1,6.275177598E-1,9.185447693E0,3.275176048E0
9.284812370E-1,6.137589812E-1,9.195018768E0,3.303889751E0
9.305806930E-1,5.994020700E-1,9.218947411E0,3.308077335E0
9.326736700E-1,5.754738450E-1,9.242876053E0,3.332005501E0
9.347842770E-1,5.659025311E-1,9.252447128E0,3.303291559E0
9.368856060E-1,5.365904570E-1,9.257232666E0,3.265006542E0
9.389879310E-1,5.222335458E-1,9.257232666E0,3.260220766E0
9.410869600E-1,5.030909777E-1,9.242876053E0,3.260818958E0
9.431876070E-1,4.887340367E-1,9.233304024E0,3.270390272E0
9.452871760E-1,4.791627228E-1,9.209974289E0,3.289532900E0
9.473873250E-1,4.606183469E-1,9.205188751E0,3.323032379E0
9.494880220E-1,4.510470629E-1,9.195617676E0,3.347558975E0
9.515873370E-1,4.462614357E-1,9.200403214E0,3.356531858E0
9.536848710E-1,4.319044948E-1,9.195617676E0,3.323630571E0
9.557899220E-1,4.504488707E-1,9.214759827E0,3.279961586E0
9.578901730E-1,4.504488707E-1,9.229117393E0,3.270390272E0
9.599917970E-1,4.600201547E-1,9.266803741E0,3.269792080E0
9.620912030E-1,4.701896608E-1,9.305088997E0,3.260220766E0
9.641893160E-1,4.845465720E-1,9.352945328E0,3.283550978E0
9.662812760E-1,4.941178858E-1,9.396016121E0,3.321237803E0
9.683893490E-1,5.042873621E-1,9.410373688E0,3.369094372E0
9.704949300E-1,5.186443329E-1,9.434301376E0,3.411566973E0
9.725973070E-1,5.192425251E-1,9.434301376E0,3.449851990E0
9.746969260E-1,5.335994363E-1,9.448060036E0,3.464209080E0
9.767876850E-1,5.383850932E-1,9.476774216E0,3.478565931E0
9.788962360E-1,5.335994363E-1,9.462417603E0,3.488137245E0
9.809954080E-1,5.383850932E-1,9.495916367E0,3.506681681E0
9.830986800E-1,5.335994363E-1,9.510273933E0,3.506681681E0
9.851979130E-1,5.288137794E-1,9.519845009E0,3.511467218E0
9.872989270E-1,5.144568682E-1,9.519845009E0,3.521038532E0
9.893990030E-1,5.048855543E-1,9.529416084E0,3.492324591E0
9.914988570E-1,5.048855543E-1,9.519845009E0,3.473181963E0
9.935990060E-1,4.809573591E-1,9.510871887E0,3.425325632E0
9.956983100E-1,4.660021961E-1,9.501300812E0,3.397209883E0
9.977995770E-1,4.564309120E-1,9.482157707E0,3.363710403E0
9.998994410E-1,4.277170599E-1,9.491728783E0,3.358924866E0
1.001989915E0,4.325026870E-1,9.486943245E0,3.382853031E0
1.004093818E0,5.808576941E-1,9.610772133E0,3.324228764E0
1.006203336E0,6.095715761E-1,9.782457352E0,3.169293642E0
1.008304298E0,4.558327198E-1,9.778269768E0,3.122035265E0
1.010397437E0,3.409772217E-1,9.678369522E0,3.166302681E0
1.012502377E0,2.315055877E-1,9.540184021E0,3.320639610E0
1.014595222E0,2.027917206E-1,9.425328255E0,3.465405464E0
1.016708320E0,2.416750938E-1,9.282357216E0,3.643072367E0
1.018809486E0,3.475574851E-1,9.200403214E0,3.748954773E0
1.020923347E0,4.474578202E-1,9.162117958E0,3.715455294E0
1.023007372E0,5.330012441E-1,9.199805260E0,3.557528973E0
1.025108070E0,5.419743061E-1,9.285946846E0,3.341576815E0
1.027204720E0,5.270192027E-1,9.367302895E0,3.116053343E0
1.029308764E0,5.024927258E-1,9.410373688E0,2.981456995E0
1.031409635E0,4.731806815E-1,9.443872452E0,2.890529871E0
1.033510668E0,4.492524564E-1,9.429515839E0,2.895315409E0
1.035610827E0,4.642075896E-1,9.396016121E0,2.953341246E0
1.037712156E0,4.450650215E-1,9.334401131E0,3.040081263E0
1.039811744E0,4.408775866E-1,9.272188187E0,3.150749207E0
1.041909574E0,4.169493318E-1,9.214759827E0,3.227319479E0
1.044002245E0,4.217349887E-1,9.176474571E0,3.251846075E0
1.046113320E0,3.924229145E-1,9.142974854E0,3.218944550E0
1.048211515E0,4.019941986E-1,9.133403778E0,3.137588739E0
1.050307686E0,4.301098585E-1,9.142974854E0,3.056232691E0
1.052412605E0,4.253242314E-1,9.133403778E0,2.970091105E0
1.054506071E0,4.342973232E-1,9.152546883E0,2.912663460E0
1.056616881E0,4.247260094E-1,9.147761345E0,2.869592667E0
1.058715778E0,4.247260094E-1,9.142974854E0,2.836092949E0
1.060819578E0,4.247260094E-1,9.166903496E0,2.831307411E0
1.062915891E0,4.336991012E-1,9.186046600E0,2.797209740E0
1.065008950E0,4.528416991E-1,9.176474571E0,2.788236618E0
1.067114989E0,4.528416991E-1,9.209974289E0,2.787638426E0
1.069219593E0,4.480560422E-1,9.219545364E0,2.758924484E0
1.071323006E0,4.528416991E-1,9.248259544E0,2.687139750E0
1.073420571E0,4.480560422E-1,9.286544800E0,2.667398930E0
1.075518299E0,4.624129832E-1,9.333803177E0,2.642872572E0
1.077622904E0,4.767699242E-1,9.352945328E0,2.642872572E0
1.079722177E0,4.815555513E-1,9.352945328E0,2.685943365E0
1.081823943E0,4.815555513E-1,9.348159790E0,2.690729141E0
1.083922972E0,4.815555513E-1,9.338588715E0,2.695514679E0
1.086021961E0,5.102694035E-1,9.329017639E0,2.671586514E0
1.088114969E0,4.815555513E-1,9.309874535E0,2.648256540E0
1.090224781E0,4.863412082E-1,9.276973724E0,2.657827854E0
1.092322701E0,4.624129832E-1,9.257830620E0,2.691925526E0
1.094418131E0,4.815555513E-1,9.224330902E0,2.711068153E0
1.096525482E0,4.815555513E-1,9.195617676E0,2.715853691E0
1.098623229E0,4.719842672E-1,9.176474571E0,2.721237659E0
1.100730335E0,4.289134443E-1,9.166903496E0,2.702095032E0
1.102828541E0,4.187439680E-1,9.138189316E0,2.669193745E0
1.104931305E0,3.852444589E-1,9.124430656E0,2.626122952E0
1.107026997E0,3.750749528E-1,9.086145401E0,2.598007202E0
1.109121063E0,3.655036688E-1,9.052646637E0,2.574079037E0
1.111230152E0,3.415754437E-1,9.009575844E0,2.555534601E0
1.113330962E0,3.505485058E-1,8.937790871E0,2.498705149E0
1.115433623E0,3.451646566E-1,8.880961418E0,2.437089920E0
1.117531921E0,3.541377485E-1,8.828319550E0,2.337189436E0
1.119630188E0,3.726821244E-1,8.751749039E0,2.271386862E0
1.121723917E0,4.157529473E-1,8.703892708E0,2.170888424E0
1.123833659E0,4.534398913E-1,8.646464348E0,2.075773716E0
1.125932577E0,4.959124923E-1,8.569893837E0,2.009372711E0
1.128035807E0,5.431707501E-1,8.469395638E0,1.953141451E0
1.130134541E0,5.856433511E-1,8.344968796E0,1.915454507E0
1.132232747E0,5.994020700E-1,8.234899521E0,1.854437590E0
1.134336894E0,6.275177598E-1,8.134998322E0,1.779063582E0
1.136437104E0,6.412764788E-1,8.058428764E0,1.679163337E0
1.138539541E0,6.508477330E-1,8.015357971E0,1.612762451E0
1.140638092E0,6.837490797E-1,8.001000404E0,1.555334687E0
1.142737701E0,6.933203340E-1,7.996214867E0,1.531406522E0
1.144840434E0,7.124629617E-1,8.024929047E0,1.516451359E0
1.146939738E0,7.411768436E-1,8.043473244E0,1.545165181E0
1.149041007E0,7.890332937E-1,8.038687706E0,1.573879123E0
1.151141419E0,8.464609981E-1,8.000402451E0,1.569093466E0
1.153245769E0,9.038887620E-1,7.962117195E0,1.573879123E0
1.155343140E0,9.278169870E-1,7.914260864E0,1.536192179E0
1.157442567E0,9.798609018E-1,7.875975609E0,1.508076429E0
1.159542572E0,1.046859860E0,7.856235027E0,1.474576950E0
1.161643280E0,1.113858938E0,7.837092400E0,1.493719578E0
1.163741527E0,1.195813060E0,7.826922894E0,1.531406522E0
1.165834474E0,1.310668588E0,7.793423176E0,1.579262972E0
1.167945629E0,1.401595831E0,7.773682594E0,1.593619823E0
1.170046061E0,1.511665702E0,7.768897057E0,1.617548108E0
1.172149801E0,1.616949916E0,7.758727551E0,1.636092424E0
1.174244172E0,1.737189293E0,7.791628838E0,1.659422517E0
1.176337037E0,1.843071699E0,7.844270706E0,1.721037745E0
1.178448284E0,1.948953986E0,7.910671711E0,1.815554142E0
1.180548493E0,2.064407825E0,7.957930088E0,1.929811478E0
1.182651744E0,2.175075769E0,7.981259823E0,2.015354872E0
1.184749381E0,2.294716835E0,7.976474285E0,2.057827473E0
1.186849336E0,2.414358139E0,7.961519241E0,2.091326952E0
1.188951092E0,2.538784742E0,7.917850018E0,2.081755638E0
1.191051372E0,2.663211584E0,7.869993687E0,2.076970100E0
1.193152549E0,2.792423964E0,7.811967850E0,2.038684845E0
1.195252707E0,2.949752092E0,7.759325504E0,1.972284079E0
1.197353131E0,3.078366280E0,7.710870743E0,1.847857237E0
1.199453665E0,3.226123095E0,7.686344624E0,1.733001828E0
1.201551353E0,3.349951744E0,7.695915699E0,1.603191137E0
1.203644635E0,3.436093330E0,7.728816986E0,1.526620865E0
1.205756105E0,3.531806231E0,7.785646915E0,1.453639746E0
1.207853223E0,3.617947817E0,7.871788502E0,1.414756417E0
1.209949199E0,3.684946775E0,7.923832417E0,1.371087432E0
1.212057639E0,3.766302824E0,7.981259823E0,1.365703583E0
1.214157809E0,3.823730469E0,8.018946648E0,1.341177106E0
1.216260206E0,3.919443607E0,8.075776100E0,1.331007600E0
1.218358208E0,3.986442566E0,8.133204460E0,1.296311617E0
1.220459637E0,4.058227062E0,8.166105270E0,1.281954765E0
1.222561047E0,4.111467361E0,8.213961601E0,1.281356573E0
1.224660026E0,4.178466320E0,8.270791054E0,1.261017561E0
1.226760419E0,4.245465755E0,8.313861847E0,1.269990563E0
1.228863721E0,4.331607342E0,8.370692253E0,1.274178028E0
1.230973727E0,4.437489510E0,8.432307243E0,1.316650629E0
1.233062624E0,4.533800602E0,8.504091263E0,1.377667665E0
1.235162753E0,4.639084816E0,8.575278282E0,1.405185103E0
1.237258080E0,4.754538536E0,8.636893272E0,1.447657704E0
1.239354973E0,4.831109047E0,8.712865829E0,1.412961721E0
1.241462598E0,4.898108006E0,8.803792953E0,1.378864050E0
1.243555179E0,4.989035130E0,8.918049812E0,1.272383451E0
1.245666151E0,5.084149837E0,8.994022369E0,1.122832060E0
1.247764876E0,5.189434052E0,9.060422897E0,9.978070259E-1
1.249869652E0,5.298905849E0,9.150752068E0,8.626125455E-1
1.251967451E0,5.389832973E0,9.265607834E0,7.657032609E-1
1.254068006E0,5.490331650E0,9.370293617E0,7.310073376E-1
1.256169996E0,5.572285652E0,9.498908043E0,7.345965505E-1
1.258269280E0,5.630311489E0,9.646664619E0,7.710871100E-1
1.260369540E0,5.678766251E0,9.794421196E0,8.129615188E-1
1.262467512E0,5.746363640E0,9.909276962E0,8.590233326E-1
1.264562615E0,5.799603939E0,1.001396275E1,9.014959335E-1
1.266671746E0,5.837889194E0,1.011864853E1,9.194421172E-1
1.268772098E0,5.867201328E0,1.021914768E1,9.613165259E-1
1.270874423E0,5.915655613E0,1.030469036E1,9.888339639E-1
1.272973890E0,5.968297958E0,1.038604641E1,1.002592683E0
1.275071221E0,6.049654007E0,1.041894817E1,9.924231768E-1
1.277163893E0,6.126224041E0,1.042373371E1,9.445667267E-1
1.279275161E0,6.197410583E0,1.040877819E1,8.536394835E-1
1.281374667E0,6.268597126E0,1.038006496E1,7.770691514E-1
1.283478071E0,6.335596085E0,1.036570740E1,6.957131624E-1
1.285573602E0,6.378666878E0,1.037468052E1,6.957131624E-1
1.287666701E0,6.397809505E0,1.041775131E1,7.429714203E-1
1.289778141E0,6.399005890E0,1.049910736E1,8.476574421E-1
1.291877455E0,6.375676155E0,1.062353420E1,9.373882413E-1
1.293980921E0,6.342774391E0,1.078564835E1,1.031306505E0
1.296077295E0,6.315257072E0,1.095793152E1,1.120439172E0
1.298171432E0,6.282355785E0,1.113440228E1,1.234098315E0
1.300280124E0,6.250052929E0,1.131625652E1,1.361516118E0
1.302380365E0,6.208178520E0,1.148375416E1,1.503290772E0
1.304483647E0,6.142375946E0,1.167458153E1,1.673779488E0
1.306582982E0,6.110072613E0,1.182772255E1,1.835294962E0
1.308684311E0,6.077171326E0,1.198086262E1,1.991426587E0
1.310783248E0,6.054439545E0,1.210469151E1,2.081157446E0
1.312883030E0,6.059823513E0,1.221476173E1,2.151745796E0
1.314981501E0,6.050251961E0,1.227218914E1,2.213361025E0
1.317082534E0,6.055635929E0,1.232483101E1,2.270190477E0
1.319180863E0,6.061019897E0,1.236730385E1,2.327618122E0
1.321275710E0,6.085546017E0,1.242473125E1,2.417349100E0
1.323387436E0,6.095715523E0,1.247737408E1,2.517249346E0
1.325486750E0,6.114858150E0,1.256770229E1,2.559721947E0
1.327589514E0,6.081956863E0,1.268734360E1,2.582453728E0
1.329684412E0,6.058028698E0,1.282134151E1,2.576471806E0
1.331777165E0,6.001199245E0,1.294098282E1,2.556730986E0
1.333889440E0,5.953342915E0,1.306540966E1,2.536391973E0
1.335989293E0,5.876772404E0,1.313719463E1,2.559721947E0
1.338092758E0,5.815157413E0,1.318505096E1,2.616551638E0
1.340191411E0,5.720042706E0,1.320000648E1,2.726621389E0
1.342291366E0,5.648856163E0,1.320479202E1,2.846860647E0
1.344392044E0,5.553741455E0,1.321974659E1,3.004188776E0
1.346492691E0,5.434698582E0,1.324367523E1,3.138186932E0
1.348592362E0,5.296513081E0,1.327777290E1,3.291327477E0
1.350694667E0,5.144568920E0,1.330708504E1,3.444468260E0
1.352799861E0,5.000999451E0,1.331665611E1,3.554538012E0
1.354894863E0,4.858027935E0,1.329332638E1,3.689134359E0
1.356995632E0,4.676771641E0,1.326999664E1,3.828516245E0
1.359093807E0,4.509872437E0,1.323709488E1,3.943969965E0
1.361196141E0,4.333401680E0,1.322333622E1,4.097708702E0
1.363293585E0,4.137190342E0,1.320957756E1,4.241876125E0
1.365386653E0,3.970889091E0,1.321017551E1,4.404588223E0
1.367497453E0,3.784847260E0,1.320598793E1,4.601397991E0
1.369598161E0,3.598805189E0,1.322094345E1,4.807180882E0
1.371701951E0,3.451646566E0,1.325504112E1,5.060820103E0
1.373796586E0,3.290131092E0,1.331725407E1,5.242076397E0
1.375885494E0,3.166302681E0,1.336092377E1,5.390431404E0
1.377999121E0,3.032902718E0,1.341835117E1,5.480760098E0
1.380100653E0,2.927618504E0,1.346201992E1,5.514259815E0
1.382204718E0,2.846262455E0,1.350030518E1,5.504688263E0
1.384299587E0,2.755335331E0,1.351047516E1,5.485546112E0
1.386392717E0,2.673979282E0,1.352961731E1,5.456831932E0
1.388503913E0,2.602194548E0,1.355833149E1,5.408975601E0
1.390604478E0,2.510669231E0,1.356850052E1,5.347360611E0
1.392706713E0,2.414956331E0,1.358285809E1,5.289932728E0
1.394805030E0,2.309073925E0,1.356431293E1,5.271388054E0
1.396904354E0,2.213361025E0,1.354576874E1,5.280959606E0
1.399003618E0,2.084746838E0,1.351226902E1,5.338985443E0
1.401106126E0,1.941177368E0,1.349372482E1,5.440082073E0
1.403206814E0,1.750349760E0,1.349432373E1,5.555535793E0
1.405308173E0,1.569093466E0,1.350927830E1,5.670391560E0
1.407406857E0,1.397408366E0,1.351944828E1,5.795416355E0
1.409500494E0,1.229910851E0,1.351526070E1,5.895915031E0
1.411609361E0,1.052842021E0,1.350628757E1,5.949155331E0
1.413710863E0,9.284151793E-1,1.343988705E1,5.931209087E0
1.415812426E0,7.842476368E-1,1.335434341E1,5.884549141E0
1.417911699E0,6.592226624E-1,1.325444317E1,5.809175014E0
1.420015021E0,5.485545993E-1,1.317368507E1,5.700301647E0
1.422112434E0,4.570291340E-1,1.308335590E1,5.648856163E0
1.424213284E0,3.750749528E-1,1.300259781E1,5.611767292E0
1.426311826E0,2.650051117E-1,1.294995594E1,5.598008633E0
1.428411060E0,1.974078715E-1,1.290269756E1,5.589035511E0
1.430504789E0,8.733802289E-2,1.289851093E1,5.589633465E0
1.432614784E0,1.615155302E-2,1.292722416E1,5.617749214E0
1.434713692E0,-8.434699476E-2,1.294158173E1,5.651846886E0
1.436817858E0,-1.848455518E-1,1.297567940E1,5.694319725E0
1.438916257E0,-2.847459018E-1,1.301396370E1,5.742176056E0
1.441015602E0,-3.750749528E-1,1.305284786E1,5.852245808E0
1.443106921E0,-4.755735099E-1,1.308634663E1,5.952744484E0
1.445216449E0,-5.515456200E-1,1.308156109E1,6.029314995E0
1.447316516E0,-6.520441771E-1,1.305823135E1,6.077769279E0
1.449420153E0,-7.334001660E-1,1.301097298E1,6.116652966E0
1.451522886E0,-8.099704385E-1,1.291526031E1,6.102894306E0
1.453633197E0,-8.919246197E-1,1.283928776E1,6.084948063E0
1.455721230E0,-9.499505758E-1,1.274895859E1,6.028716564E0
1.457822091E0,-1.022333503E0,1.265803146E1,5.948556900E0
1.459918383E0,-1.104287624E0,1.255813122E1,5.834897995E0
1.462022469E0,-1.167099237E0,1.247258759E1,5.726024628E0
1.464123106E0,-1.230509043E0,1.237747288E1,5.612365723E0
1.466224068E0,-1.288534999E0,1.231525993E1,5.507679462E0
1.468324461E0,-1.336989641E0,1.232483101E1,5.407180786E0
1.470424303E0,-1.384846091E0,1.238285732E1,5.335396290E0
1.472523425E0,-1.481157184E0,1.242114258E1,5.230112076E0
1.474618224E0,-1.563111424E0,1.242652607E1,5.110470772E0
1.476721017E0,-1.601994753E0,1.236909866E1,5.005784988E0
1.478827371E0,-1.631306887E0,1.228295708E1,4.901697159E0
1.480930032E0,-1.641476393E0,1.218305683E1,4.831109047E0
1.483028909E0,-1.660618901E0,1.211127186E1,4.807778835E0
1.485125558E0,-1.660618901E0,1.206341553E1,4.832305431E0
1.487218230E0,-1.684547186E0,1.202513027E1,4.856233597E0
1.489329609E0,-1.708475351E0,1.199222851E1,4.928616524E0
1.491430866E0,-1.737189293E0,1.204487133E1,4.966303349E0
1.493533059E0,-1.770688772E0,1.208794212E1,4.937589645E0
1.495630869E0,-1.837089539E0,1.214058399E1,4.941776752E0
1.497729197E0,-1.851446509E0,1.218844032E1,4.989035130E0
1.499830230E0,-1.865803480E0,1.219322586E1,4.998606682E0
1.501920185E0,-1.869990945E0,1.220758247E1,5.032105923E0
1.504023650E0,-1.860419631E0,1.218844032E1,5.041677475E0
1.506132771E0,-1.851446509E0,1.214536953E1,4.994419098E0
1.508236714E0,-1.837687731E0,1.206401348E1,4.937589645E0
1.510338083E0,-1.804188251E0,1.198744297E1,4.886143684E0
1.512433084E0,-1.786242127E0,1.190608692E1,4.786243439E0
1.514523660E0,-1.777269006E0,1.180140114E1,4.682155609E0
1.516623870E0,-1.782652855E0,1.170090294E1,4.553541660E0
1.518725260E0,-1.831107497E0,1.161535931E1,4.454239368E0
1.520830210E0,-1.870589137E0,1.150528908E1,4.354937077E0
1.522941548E0,-1.928615093E0,1.139581776E1,4.265206337E0
1.525042043E0,-1.977069736E0,1.128634644E1,4.204189301E0
1.527141835E0,-2.049452543E0,1.117627621E1,4.167100430E0
1.529241343E0,-2.140978098E0,1.105244732E1,4.130609989E0
1.531345580E0,-2.251047850E0,1.087178993E1,4.113262177E0
1.533441427E0,-2.285145521E0,1.069950676E1,4.091128349E0
1.535541484E0,-2.328814745E0,1.062353420E1,4.082753658E0
1.537640931E0,-2.429911375E0,1.058046341E1,4.001996040E0
1.539740173E0,-2.511865616E0,1.053320503E1,3.926023722E0
1.541834025E0,-2.598007202E0,1.048594666E1,3.873979807E0
1.543944122E0,-2.689532757E0,1.041894817E1,3.836891174E0
1.546044474E0,-2.761915445E0,1.032861900E1,3.799204111E0
1.548148193E0,-2.838485956E0,1.027178955E1,3.762115479E0
1.550245727E0,-2.848655462E0,1.023828983E1,3.709473372E0
1.552345958E0,-2.834298372E0,1.027178955E1,3.618546009E0
1.554446524E0,-3.227917671E0,1.026341438E1,3.461816072E0
1.556547160E0,-3.347558975E0,1.016829967E1,3.515654564E0
1.558649018E0,-3.256631613E0,1.012522888E1,3.563511133E0
1.560747996E0,-3.214159012E0,1.016291618E1,3.415156126E0
1.562844574E0,-3.262015581E0,1.020658493E1,3.290131092E0
1.564931031E0,-3.276372433E0,1.026879883E1,3.261417150E0
1.567040701E0,-3.248256683E0,1.029691410E1,3.232105255E0
1.569140351E0,-3.224328518E0,1.029212856E1,3.169891834E0
1.571255330E0,-3.205784082E0,1.028255749E1,3.088535786E0
1.573352194E0,-3.181855917E0,1.031127071E1,2.992822886E0
1.575451580E0,-3.139383316E0,1.032562828E1,2.897109985E0
1.577553020E0,-3.129812002E0,1.037348461E1,2.800798893E0
1.579653005E0,-3.086741209E0,1.040638542E1,2.776272535E0
1.581754304E0,-3.044268608E0,1.043988514E1,2.709273338E0
1.583851920E0,-2.948555708E0,1.046321487E1,2.675175667E0
1.585946586E0,-2.876770973E0,1.051585770E1,2.564507723E0
1.588055563E0,-2.800798893E0,1.052961636E1,2.440080881E0
1.590156037E0,-2.729612350E0,1.056311512E1,2.300698996E0
1.592256786E0,-2.687139750E0,1.055832958E1,2.219342947E0
1.594346773E0,-2.634497643E0,1.056251717E1,2.181057930E0
1.596455039E0,-2.572284460E0,1.053858948E1,2.181057930E0
1.598548179E0,-2.514856577E0,1.055294609E1,2.142772675E0
1.600661113E0,-2.467598438E0,1.054756260E1,2.104487419E0
1.602759065E0,-2.410170555E0,1.056670475E1,2.065604210E0
1.604862124E0,-2.357528448E0,1.056191921E1,2.036890268E0
1.606958569E0,-2.328814745E0,1.059063339E1,1.998006940E0
1.609054740E0,-2.324028969E0,1.061934662E1,1.974078655E0
1.611161348E0,-2.290529490E0,1.067139053E1,1.925624013E0
1.613262565E0,-2.314457655E0,1.071446133E1,1.887338877E0
1.615364870E0,-2.319841623E0,1.074796104E1,1.862812400E0
1.617463035E0,-2.358126640E0,1.078146076E1,1.838884234E0
1.619565543E0,-2.396411896E0,1.078624630E1,1.838884234E0
1.621671002E0,-2.415554523E0,1.077248764E1,1.858026743E0
1.623764763E0,-2.453839540E0,1.076770210E1,1.858624935E0
1.625866122E0,-2.492124796E0,1.076770210E1,1.872981906E0
1.627963849E0,-2.544168711E0,1.077727318E1,1.882553220E0
1.630066377E0,-2.601596355E0,1.076830006E1,1.892124534E0
1.632167075E0,-2.625524759E0,1.074437141E1,1.921436548E0
1.634266960E0,-2.644667149E0,1.072522926E1,1.954936147E0
1.636366366E0,-2.673381090E0,1.069172955E1,1.969891191E0
1.638467186E0,-2.692523718E0,1.062951660E1,2.013560295E0
1.640567395E0,-2.711666346E0,1.057747269E1,2.051845312E0
1.642661644E0,-2.778665304E0,1.049611664E1,2.115255117E0
1.644771009E0,-2.821736097E0,1.045364380E1,2.144567251E0
1.646870548E0,-2.893520832E0,1.042971611E1,2.134995937E0
1.648973697E0,-2.922234535E0,1.041535854E1,2.116451740E0
1.651068199E0,-2.941975355E0,1.042074299E1,2.078166485E0
1.653158135E0,-2.937189817E0,1.042014408E1,2.082952023E0
1.655272871E0,-2.903092146E0,1.045364380E1,2.115853310E0
1.657373670E0,-2.864208698E0,1.050150013E1,2.196611166E0
1.659478772E0,-2.835494757E0,1.052064323E1,2.277369022E0
1.661574578E0,-2.806182861E0,1.055354404E1,2.291725874E0
1.663673740E0,-2.791825771E0,1.057747269E1,2.324627161E0
1.665775862E0,-2.763111830E0,1.056311512E1,2.310270309E0
1.667876418E0,-2.748754978E0,1.055354404E1,2.338984251E0
1.669976932E0,-2.734398127E0,1.052483082E1,2.368296146E0
1.672076999E0,-2.724826813E0,1.049611664E1,2.406581402E0
1.674175520E0,-2.719442844E0,1.044826031E1,2.478964329E0
1.676269707E0,-2.733799934E0,1.039561844E1,2.541177750E0
1.678378849E0,-2.724228621E0,1.032861900E1,2.570489645E0
1.680479628E0,-2.719442844E0,1.027597713E1,2.618944407E0
1.682583347E0,-2.724228621E0,1.021914768E1,2.629113913E0
1.684678378E0,-2.738585472E0,1.020000458E1,2.629712105E0
1.686769087E0,-2.757728100E0,1.015214825E1,2.629712105E0
1.688881280E0,-2.782254457E0,1.012343407E1,2.592025042E0
1.690982100E0,-2.834896564E0,1.011924744E1,2.582453728E0
1.693086470E0,-2.844467878E0,1.011446095E1,2.572882652E0
1.695179203E0,-2.887538671E0,1.009053326E1,2.583052158E0
1.697271062E0,-2.892324448E0,1.003789139E1,2.607578516E0
1.699383406E0,-2.897109985E0,9.994820595E0,2.645863533E0
1.701482517E0,-2.901895761E0,9.933204651E0,2.660818815E0
1.703578424E0,-2.921038151E0,9.880562782E0,2.694916487E0
1.705687230E0,-2.944966555E0,9.827920914E0,2.729014158E0
1.707791285E0,-2.940180779E0,9.746564865E0,2.739183664E0
1.709890944E0,-2.955136061E0,9.684949875E0,2.739781857E0
1.711987818E0,-2.964707375E0,9.603593826E0,2.707478762E0
1.714087610E0,-2.984447956E0,9.531808853E0,2.717648268E0
1.716188379E0,-2.989233732E0,9.498309135E0,2.693720102E0
1.718286707E0,-3.046661377E0,9.465408325E0,2.670390129E0
1.720379917E0,-3.094517946E0,9.465408325E0,2.642274380E0
1.722490849E0,-3.123830080E0,9.407979965E0,2.604587555E0
1.724591222E0,-3.171686411E0,9.365508080E0,2.600399971E0
1.726695114E0,-3.186641455E0,9.298508644E0,2.591426849E0
1.728790126E0,-3.200998545E0,9.217152596E0,2.587239504E0
1.730885512E0,-3.230310678E0,9.131608963E0,2.568695068E0
1.732993341E0,-3.239881754E0,9.050253868E0,2.512463808E0
1.735093714E0,-3.240479946E0,8.950352669E0,2.432304144E0
1.737197200E0,-3.212962627E0,8.859425545E0,2.322832584E0
1.739302972E0,-3.213560820E0,8.768498421E0,2.170888424E0
1.741410039E0,-3.229114056E0,8.677571297E0,2.027917147E0
1.743497024E0,-3.248854876E0,8.601598740E0,1.861616015E0
1.745595200E0,-3.283550978E0,8.544171333E0,1.737787485E0
1.747693802E0,-3.312264681E0,8.496912956E0,1.652244091E0
1.749798904E0,-3.327219963E0,8.425128937E0,1.657627940E0
1.751898779E0,-3.331407309E0,8.382058144E0,1.720439434E0
1.753998897E0,-3.278765202E0,8.315058708E0,1.788036704E0
1.756098831E0,-3.259024382E0,8.295916557E0,1.878963947E0
1.758199967E0,-3.215953588E0,8.276773453E0,1.989033818E0
1.760301163E0,-3.153141975E0,8.276175499E0,2.045863390E0
1.762398321E0,-3.119642496E0,8.300103188E0,2.041077614E0
1.764491064E0,-3.095714331E0,8.300103188E0,2.093719721E0
1.766600103E0,-3.047259569E0,8.319246292E0,2.155334949E0
1.768701320E0,-3.027518749E0,8.300103188E0,2.236690998E0
1.770805557E0,-2.998805046E0,8.304290771E0,2.303689957E0
1.772903774E0,-2.983849764E0,8.280363083E0,2.399402857E0
1.775004339E0,-2.964108944E0,8.251648903E0,2.523829699E0
1.777106309E0,-2.964108944E0,8.237292290E0,2.633899450E0
1.779205278E0,-2.953939438E0,8.218149185E0,2.729612350E0
1.781306321E0,-2.944368362E0,8.189435959E0,2.763111830E0
1.783405921E0,-2.925225735E0,8.151150703E0,2.792423964E0
1.785507188E0,-2.915654421E0,8.112865448E0,2.816352367E0
1.787607977E0,-2.896511793E0,8.079365730E0,2.807379246E0
1.789707983E0,-2.891726255E0,8.041080475E0,2.779263496E0
1.791808752E0,-2.877967358E0,7.998009682E0,2.726621389E0
1.793910102E0,-2.835494757E0,7.916653633E0,2.655434847E0
1.796007646E0,-2.797807932E0,7.821538925E0,2.551347256E0
1.798100033E0,-2.755335331E0,7.706683636E0,2.404188633E0
1.800210526E0,-2.656631231E0,7.620542049E0,2.155933142E0
1.802311407E0,-2.486142635E0,7.591229916E0,1.658824325E0
1.804414720E0,-2.511865616E0,7.639086246E0,1.256830096E0
1.806509650E0,-2.879163742E0,7.592426300E0,1.578066587E0
1.808602628E0,-3.178864956E0,7.488338470E0,2.063211441E0
1.810714800E0,-3.090330362E0,7.306483746E0,1.691725612E0
1.812814521E0,-3.014956474E0,6.996015072E0,1.584048629E0
1.814917447E0,-2.929413080E0,6.637091637E0,1.658824325E0
1.817015856E0,-2.863012314E0,6.369693756E0,1.622931957E0
1.819116076E0,-2.840878725E0,6.235695839E0,1.328016520E0
1.821216814E0,-2.851646423E0,6.178267956E0,1.036690354E0
1.823316372E0,-2.867199659E0,6.217151642E0,7.734799385E-1
1.825415840E0,-2.911466837E0,6.241079807E0,5.868397355E-1
1.827517667E0,-2.907279491E0,6.245865345E0,4.384847581E-1
1.829620307E0,-2.893520832E0,6.226722717E0,3.242274821E-1
1.831724891E0,-2.898306370E0,6.255436420E0,2.811566591E-1
1.833819505E0,-2.883351326E0,6.274579048E0,3.475574851E-1
1.835920031E0,-2.815753937E0,6.312266350E0,4.666004181E-1
1.838019264E0,-2.791227579E0,6.384050846E0,6.239284873E-1
1.840119097E0,-2.775674343E0,6.450451851E0,8.285148144E-1
1.842211870E0,-2.721835852E0,6.522236347E0,1.042672515E0
1.844323300E0,-2.648854733E0,6.607779503E0,1.247258782E0
1.846422646E0,-2.566302299E0,6.674180508E0,1.423729420E0
1.848525887E0,-2.459821701E0,6.726224422E0,1.613958836E0
1.850624245E0,-2.334796667E0,6.792625427E0,1.775474429E0
1.852725054E0,-2.228316069E0,6.878168583E0,1.946561217E0
1.854825773E0,-2.131406784E0,6.978667259E0,2.084148407E0
1.856925576E0,-1.982453585E0,7.077969551E0,2.206780672E0
1.859026670E0,-1.871785522E0,7.173084259E0,2.296511650E0
1.861127134E0,-1.737189293E0,7.229913712E0,2.348555326E0
1.863226275E0,-1.555334687E0,7.281957626E0,2.356930256E0
1.865328224E0,-1.459023595E0,7.305885792E0,2.394617319E0
1.867428526E0,-1.353739381E0,7.310073376E0,2.408974171E0
1.869529060E0,-1.258026481E0,7.310073376E0,2.365305185E0
1.871629199E0,-1.147956610E0,7.295117855E0,2.331805706E0
1.873727252E0,-1.062413216E0,7.266404152E0,2.264806747E0
1.875820677E0,-9.858429432E-1,7.222734928E0,2.246262312E0
1.877932432E0,-9.098708034E-1,7.189235687E0,2.160120726E0
1.880031564E0,-8.721838593E-1,7.136593342E0,2.036292076E0
1.882134978E0,-8.063812256E-1,7.069594383E0,1.816750646E0
1.884230752E0,-7.932206988E-1,6.973881721E0,1.630708575E0
1.886322427E0,-7.752745152E-1,6.883552551E0,1.435693622E0
1.888432749E0,-7.716853023E-1,6.773482800E0,1.240678549E0
1.890534259E0,-7.244270444E-1,6.682555676E0,1.055234790E0
1.892637551E0,-7.304090858E-1,6.582056999E0,9.314061999E-1
1.894733264E0,-7.549355626E-1,6.515655994E0,8.847461939E-1
1.896826079E0,-7.501499057E-1,6.439085960E0,8.470591903E-1
1.898937388E0,-7.316055298E-1,6.386443615E0,7.519445419E-1
1.901038858E0,-7.178468108E-1,6.314659119E0,7.190431952E-1
1.903140115E0,-6.897311211E-1,6.233303070E0,6.430711150E-1
1.905238056E0,-6.705885530E-1,6.171089649E0,6.149554253E-1
1.907338398E0,-6.562315822E-1,6.128616810E0,5.916253924E-1
1.909440215E0,-6.083751321E-1,6.099305153E0,5.868397355E-1
1.911540994E0,-5.611169338E-1,6.070590973E0,5.437689424E-1
1.913640939E0,-5.419743061E-1,6.094519138E0,5.102694035E-1
1.915740935E0,-5.084748268E-1,6.137589931E0,5.144568682E-1
1.917838775E0,-5.270192027E-1,6.195017815E0,5.665007830E-1
1.919932209E0,-4.695914388E-1,6.232704639E0,6.137589812E-1
1.922042999E0,-3.828516304E-1,6.261418819E0,6.897311211E-1
1.924143198E0,-3.487538993E-1,6.279963017E0,7.663014531E-1
1.926246358E0,-2.817548811E-1,6.308676720E0,8.135597110E-1
1.928344207E0,-2.045863420E-1,6.332006931E0,8.656035662E-1
1.930441385E0,-1.274178028E-1,6.403791428E0,9.361918569E-1
1.932545725E0,-2.691925503E-2,6.474977970E0,9.595218897E-1
1.934645508E0,5.982056633E-2,6.584449768E0,9.726824164E-1
1.936747213E0,1.609173268E-1,6.684350014E0,9.667003751E-1
1.938847372E0,2.518445849E-1,6.774679184E0,9.320043921E-1
1.940949778E0,3.332005441E-1,6.856035233E0,8.638089895E-1
1.943048604E0,3.996013701E-1,6.912864685E0,7.435696125E-1
1.945149556E0,4.761717021E-1,6.969694138E0,6.759724021E-1
1.947248749E0,5.186443329E-1,7.027122021E0,5.988038778E-1
1.949350565E0,5.665007830E-1,7.046264648E0,5.318048596E-1
1.951449116E0,6.233302951E-1,7.031309128E0,4.504488707E-1
1.953540415E0,6.185446382E-1,7.074379921E0,4.360919297E-1
1.955649771E0,5.760720372E-1,7.127022266E0,4.546363056E-1
1.957750346E0,5.856433511E-1,7.127022266E0,5.072783828E-1
1.959855407E0,6.245267391E-1,7.079165936E0,5.886343718E-1
1.961953420E0,6.771687865E-1,7.002595425E0,6.323033571E-1
1.964050395E0,6.813562512E-1,6.940382004E0,5.898307562E-1
1.966154145E0,6.807580590E-1,6.859624386E0,4.426721931E-1
1.968254884E0,6.843472719E-1,6.787839413E0,3.188436031E-1
1.970356008E0,6.837490797E-1,6.701697826E0,2.380858511E-1
1.972455811E0,7.262216806E-1,6.601199627E0,1.579262912E-1
1.974556692E0,7.645068169E-1,6.515058041E0,1.010967568E-1
1.976657594E0,7.926225066E-1,6.415157318E0,6.400800496E-2
1.978758454E0,8.590233326E-1,6.300302029E0,-1.196411345E-2
1.980857870E0,8.727820516E-1,6.209374905E0,-1.351944804E-1
1.982958375E0,9.050851464E-1,6.104090691E0,-2.679961324E-1
1.985058859E0,9.326026440E-1,5.994020939E0,-4.348955154E-1
1.987160158E0,9.367900491E-1,5.913262844E0,-5.868397355E-1
1.989260154E0,9.649057388E-1,5.812764645E0,-6.813562512E-1
1.991360901E0,9.643075466E-1,5.726622581E0,-7.764709592E-1
1.993461427E0,9.828519225E-1,5.611767292E0,-8.279166222E-1
1.995559469E0,9.678967595E-1,5.550152302E0,-8.656035662E-1
1.997647147E0,9.966106415E-1,5.468796253E0,-8.745766878E-1
1.999763571E0,1.001396298E0,5.430510998E0,-8.835497499E-1
2.001860607E0,1.034297585E0,5.377869129E0,-9.457631707E-1
2.003955629E0,1.019940615E0,5.353940487E0,-9.690931439E-1
2.006057446E0,1.019342422E0,5.363512039E0,-9.978070259E-1
2.008176496E0,9.714859724E-1,5.406582832E0,-1.051047325E0
2.010268668E0,9.427721500E-1,5.440082073E0,-1.074975610E0
2.012367311E0,9.044869542E-1,5.473581791E0,-1.060618639E0
2.014454225E0,8.763712645E-1,5.540580750E0,-1.037288666E0
2.016562960E0,8.380861282E-1,5.588437080E0,-9.900303483E-1
2.018653821E0,8.195417523E-1,5.621936798E0,-9.188438654E-1
2.020771151E0,8.249256015E-1,5.631507874E0,-8.566305041E-1
2.022869142E0,8.584251404E-1,5.641079426E0,-8.087740541E-1
2.024972923E0,9.104689956E-1,5.569294930E0,-8.799605370E-1
2.027070193E0,8.626125455E-1,5.598008633E0,-8.949156404E-1
2.029172976E0,7.004988194E-1,5.766104221E0,-8.524430394E-1
2.031276918E0,6.675975323E-1,5.866004944E0,-7.770691514E-1
2.033372184E0,7.495517135E-1,5.875576019E0,-6.532405615E-1
2.035472058E0,8.123632669E-1,5.865406513E0,-5.288137794E-1
2.037571393E0,8.315058947E-1,5.836692810E0,-5.144568682E-1
2.039670107E0,8.219345808E-1,5.784648895E0,-5.377869010E-1
2.041760856E0,8.213363886E-1,5.741578102E0,-5.754738450E-1
2.043874677E0,8.644071817E-1,5.669793129E0,-5.748756528E-1
2.045976148E0,9.170492887E-1,5.621936798E0,-5.318048596E-1
2.048079451E0,9.984052777E-1,5.573482037E0,-4.929214716E-1
2.050172131E0,1.108475089E0,5.539982796E0,-4.737788737E-1
2.052258496E0,1.194616675E0,5.515456200E0,-5.312066078E-1
2.054377353E0,1.261017561E0,5.525027275E0,-6.945167780E-1
2.056477654E0,1.341177106E0,5.477170944E0,-9.475577474E-1
2.058583194E0,1.420738459E0,5.424529076E0,-1.238883972E0
2.060676435E0,1.448255897E0,5.343173027E0,-1.529611826E0
2.062770297E0,1.480558991E0,5.261816978E0,-1.715653777E0
2.064880201E0,1.503889084E0,5.199603558E0,-1.858624935E0
2.066980665E0,1.532004714E0,5.190032482E0,-1.887338877E0
2.069083387E0,1.566102386E0,5.199603558E0,-1.863410592E0
2.071181562E0,1.594816327E0,5.204389095E0,-1.825125456E0
2.073279503E0,1.618744493E0,5.232504845E0,-1.787438512E0
2.075372643E0,1.628913999E0,5.313860893E0,-1.735394597E0
2.077483941E0,1.610369682E0,5.400002480E0,-1.669592023E0
2.079584821E0,1.615753531E0,5.490331650E0,-1.579262972E0
2.081686852E0,1.645065546E0,5.552545071E0,-1.484148264E0
2.083784050E0,1.655235052E0,5.609972477E0,-1.379462242E0
2.085881881E0,1.680359721E0,5.647659779E0,-1.179063320E0
2.087985050E0,1.704886079E0,5.647659779E0,-1.016949654E0
2.090086683E0,1.706082582E0,5.662016392E0,-7.968099117E-1
2.092186151E0,1.764108539E0,5.647659779E0,-6.107679605E-1
2.094281732E0,1.846660852E0,5.656632900E0,-4.624129832E-1
2.096391290E0,1.942971945E0,5.670989513E0,-3.529413342E-1
2.098489343E0,2.038684845E0,5.694319725E0,-3.056831062E-1
2.100590976E0,2.153540373E0,5.751149178E0,-3.254238665E-1
2.102689152E0,2.263610125E0,5.812764645E0,-3.936193287E-1
2.104790460E0,2.373081923E0,5.874977589E0,-5.090730190E-1
2.106890985E0,2.463410854E0,5.936593056E0,-6.819544435E-1
2.108991826E0,2.563909531E0,6.031707764E0,-8.602197170E-1
2.111092278E0,2.648854733E0,6.093322754E0,-1.066600680E0
2.113194024E0,2.753540754E0,6.141179085E0,-1.239482164E0
2.115293074E0,2.872583628E0,6.178866386E0,-1.431506157E0
2.117391658E0,2.996412039E0,6.173482418E0,-1.584646821E0
2.119481765E0,3.153740168E0,6.144768715E0,-1.718644857E0
2.121585097E0,3.319443226E0,6.072385788E0,-2.019542217E0
2.123695306E0,3.071786165E0,6.340980053E0,-1.987837434E0
2.125798263E0,3.000599623E0,6.546164513E0,-1.936989903E0
2.127896591E0,3.107080221E0,6.617351055E0,-1.737189293E0
2.129987909E0,3.256033421E0,6.612565517E0,-1.527219057E0
2.132098149E0,3.294916868E0,6.616752625E0,-1.498505235E0
2.134197952E0,3.212962627E0,6.665207386E0,-1.555932879E0
2.136300847E0,3.126821041E0,6.741777897E0,-1.623530149E0
2.138399043E0,3.122633457E0,6.784848690E0,-1.571486235E0
2.140500188E0,3.151945591E0,6.813562393E0,-1.428515077E0
2.142600417E0,3.162713289E0,6.846463680E0,-1.189831018E0
2.144700281E0,3.154338360E0,6.903891563E0,-1.008574724E0
2.146800786E0,3.159722328E0,6.985247612E0,-8.656035662E-1
2.148901037E0,3.198605776E0,7.042077065E0,-8.045865893E-1
2.151000310E0,3.246462107E0,7.061219692E0,-8.285148144E-1
2.153093999E0,3.327219963E0,7.046862602E0,-8.668000102E-1
2.155203761E0,3.369692564E0,6.989434719E0,-9.571290612E-1
2.157304276E0,3.393620729E0,6.960721016E0,-1.048056364E0
2.159407486E0,3.431307554E0,6.922435760E0,-1.167099237E0
2.161508204E0,3.464209080E0,6.921837807E0,-1.253240824E0
2.163617691E0,3.516252756E0,6.950551510E0,-1.359123230E0
2.165702469E0,3.516252756E0,6.960123062E0,-1.435693622E0
2.167788946E0,3.506681681E0,6.984051228E0,-1.473978758E0
2.169894832E0,3.516252756E0,6.998407841E0,-1.473978758E0
2.172008042E0,3.544966698E0,7.027122021E0,-1.450648785E0
2.174112401E0,3.597608805E0,7.031309128E0,-1.426720500E0
2.176212062E0,3.607180119E0,7.016952515E0,-1.445863128E0
2.178309840E0,3.588037491E0,7.040880680E0,-1.508076429E0
2.180411352E0,3.601796389E0,7.031309128E0,-1.546361685E0
2.182510575E0,3.664009571E0,6.988238335E0,-1.546361685E0
2.184608720E0,3.702294827E0,6.964310169E0,-1.536192179E0
2.186701290E0,3.764508247E0,6.945167542E0,-1.526620865E0
2.188812282E0,3.836292982E0,6.963712215E0,-1.512862086E0
2.190912929E0,3.879961967E0,7.030711174E0,-1.518245935E0
2.193016068E0,3.956532240E0,7.116254330E0,-1.519442320E0
2.195112179E0,4.062414646E0,7.197012424E0,-1.511067510E0
2.197205410E0,4.143770695E0,7.335197926E0,-1.593619823E0
2.199315201E0,4.205984116E0,7.450053215E0,-1.666600943E0
2.201412563E0,4.301098824E0,7.578667641E0,-1.773081541E0
2.203504503E0,4.415954113E0,7.673782349E0,-1.889133453E0
2.205614987E0,4.530809879E0,7.759325504E0,-1.957328916E0
2.207716031E0,4.636094093E0,7.878368378E0,-2.011167526E0
2.209821621E0,4.722833633E0,8.002197266E0,-2.026720762E0
2.211919145E0,4.828117847E0,8.097311974E0,-2.013560295E0
2.214020789E0,4.924428940E0,8.192426682E0,-2.000399828E0
2.216119727E0,5.029713154E0,8.254639626E0,-1.963310957E0
2.218221870E0,5.092525005E0,8.354539871E0,-1.911865234E0
2.220321652E0,5.155336380E0,8.416155815E0,-1.850250125E0
2.222421607E0,5.208576679E0,8.468797684E0,-1.740778446E0
2.224521267E0,5.242674351E0,8.511868477E0,-1.655235052E0
2.226621945E0,5.243272781E0,8.535198212E0,-1.574477315E0
2.228720334E0,5.243272781E0,8.568697929E0,-1.507478237E0
2.230814287E0,5.248656273E0,8.606983185E0,-1.407577872E0
2.232923866E0,5.225326538E0,8.650053978E0,-1.274178028E0
2.235024412E0,5.212165833E0,8.712266922E0,-1.145563841E0
2.237123655E0,5.179264545E0,8.736195564E0,-1.002592683E0
2.239211190E0,5.127220631E0,8.769695282E0,-8.638089895E-1
2.241326270E0,5.060820103E0,8.798408508E0,-7.112665176E-1
2.243426907E0,4.989633560E0,8.803792953E0,-5.629115105E-1
2.245531207E0,4.942375183E0,8.779864311E0,-4.283152521E-1
2.247629464E0,4.890331268E0,8.784649849E0,-3.230310678E-1
2.249731188E0,4.823332310E0,8.756534576E0,-2.608176768E-1
2.251838916E0,4.813760757E0,8.737391472E0,-2.506481707E-1
2.253929136E0,4.837689400E0,8.727820396E0,-2.985046208E-1
2.256030088E0,4.856233597E0,8.723034859E0,-3.894318938E-1
2.258125913E0,4.884349346E0,8.755936623E0,-5.473581553E-1
2.260221077E0,4.888536453E0,8.784649849E0,-7.106683254E-1
2.262332120E0,4.887938499E0,8.803792953E0,-8.638089895E-1
2.264433418E0,4.868197441E0,8.833105087E0,-1.060020447E0
2.266535297E0,4.867001057E0,8.847461700E0,-1.232303619E0
2.268633747E0,4.861617565E0,8.876175880E0,-1.409372568E0
2.270733376E0,4.889732838E0,8.880363464E0,-1.538584948E0
2.272831795E0,4.927420139E0,8.889934540E0,-1.648654819E0
2.274924660E0,4.956133842E0,8.875576973E0,-1.710868239E0
2.277034219E0,4.993820667E0,8.870791435E0,-1.758724689E0
2.279134967E0,5.022534847E0,8.846863747E0,-1.805982947E0
2.281239947E0,5.046463013E0,8.818149567E0,-1.791625977E0
2.283337085E0,5.070391178E0,8.789435387E0,-1.738983870E0
2.285437458E0,5.075775146E0,8.760722160E0,-1.661815286E0
2.287539163E0,5.057230473E0,8.746364594E0,-1.532602906E0
2.289638680E0,5.033900738E0,8.794221878E0,-1.403988719E0
2.291739378E0,5.020142078E0,8.837292671E0,-1.222732425E0
2.293839445E0,5.021338463E0,8.918049812E0,-1.051645517E0
2.295940754E0,5.012963295E0,8.994620323E0,-8.608179688E-1
2.298042245E0,4.995017052E0,9.095118523E0,-6.562315822E-1
2.300141345E0,4.981856823E0,9.195018768E0,-4.564309120E-1
2.302242064E0,4.968696117E0,9.319445610E0,-2.279163599E-1
2.304342650E0,4.984847546E0,9.439086914E0,4.845465720E-2
2.306440663E0,5.005186558E0,9.548559189E0,3.098705411E-1
2.308533955E0,5.045266628E0,9.634101868E0,5.485545993E-1
2.310644133E0,5.132006168E0,9.662816048E0,7.244270444E-1
2.312745401E0,5.256433010E0,9.600004196E0,7.537391186E-1
2.314848703E0,5.047060966E0,9.878170013E0,8.422735929E-1
2.316947459E0,5.018945694E0,9.992427826E0,9.798609018E-1
2.319052958E0,5.077569485E0,9.968499184E0,1.195214868E0
2.321146870E0,5.092525005E0,9.954142570E0,1.372283816E0
2.323245442E0,5.064409256E0,9.911071777E0,1.497308731E0
2.325336140E0,5.006981373E0,9.859027863E0,1.573879123E0
2.327448720E0,4.926223755E0,9.815957069E0,1.665404558E0
2.329549814E0,4.883750916E0,9.777671814E0,1.847857237E0
2.331653838E0,4.841876507E0,9.725627899E0,2.096710920E0
2.333749939E0,4.794618607E0,9.682557106E0,2.283949137E0
2.335849182E0,4.785047054E0,9.649057388E0,2.346162558E0
2.337951793E0,4.842474937E0,9.562915802E0,2.285145521E0
2.340059031E0,4.874777794E0,9.476774216E0,2.099103689E0
2.342153137E0,4.916652203E0,9.371489525E0,1.889731646E0
2.344253224E0,4.958526611E0,9.281160355E0,1.713261008E0
2.346352041E0,4.981856823E0,9.223732948E0,1.594218135E0
2.348455068E0,4.986642361E0,9.218947411E0,1.594218135E0
2.350552306E0,5.020142078E0,9.237491608E0,1.613360643E0
2.352645792E0,5.054239750E0,9.290133476E0,1.655833244E0
2.354756348E0,5.087738991E0,9.376275063E0,1.659422517E0
2.356856354E0,5.149952412E0,9.466604233E0,1.625324726E0
2.358959656E0,5.212165833E0,9.571290970E0,1.576271892E0
2.361059204E0,5.250451088E0,9.667003632E0,1.512862086E0
2.363166525E0,5.303092957E0,9.757332802E0,1.430907965E0
2.365259755E0,5.365306377E0,9.829116821E0,1.353739381E0
2.367359569E0,5.417948723E0,9.919445992E0,1.323829174E0
2.369457835E0,5.480162144E0,9.981659889E0,1.308874011E0
2.371559266E0,5.547759533E0,1.008156013E1,1.369890928E0
2.373658468E0,5.572285652E0,1.021974564E1,1.449452281E0
2.375761536E0,5.563910961E0,1.040638542E1,1.514656782E0
2.377862254E0,5.531009674E0,1.062114143E1,1.613360643E0
2.379963124E0,5.508277893E0,1.087956619E1,1.711466432E0
2.382063752E0,5.475974560E0,1.113260746E1,1.828714728E0
2.384162009E0,5.424529076E0,1.139521980E1,1.974676847E0
2.386258882E0,5.377869129E0,1.160100269E1,2.145165443E0
2.388364239E0,5.364708424E0,1.175833035E1,2.224726915E0
2.390465037E0,5.374279499E0,1.185882950E1,2.200200319E0
2.392566997E0,5.383252621E0,1.188275719E1,2.089532375E0
2.394669476E0,5.378467083E0,1.191147137E1,1.984248161E0
2.396778403E0,5.373083115E0,1.191625690E1,1.874178290E0
2.398868267E0,5.348556995E0,1.190190029E1,1.822134495E0
2.400967662E0,5.329414368E0,1.190668583E1,1.817348838E0
2.403065055E0,5.315655708E0,1.190668583E1,1.903490424E0
2.405167482E0,5.244469166E0,1.194078350E1,2.003390789E0
2.407270113E0,5.201996326E0,1.196949673E1,2.099103689E0
2.409368968E0,5.168497086E0,1.196471119E1,2.103889227E0
2.411470928E0,5.153541565E0,1.195035458E1,2.075175524E0
2.413571493E0,5.134399414E0,1.187856960E1,2.028515339E0
2.415670351E0,5.124229908E0,1.177866936E1,1.962114573E0
2.417762189E0,5.099104881E0,1.165902805E1,1.867598057E0
2.419873597E0,5.098506927E0,1.152084255E1,1.788036704E0
2.421974540E0,5.107480049E0,1.142034435E1,1.712064624E0
2.424076336E0,5.102096081E0,1.131565857E1,1.665404558E0
2.426174227E0,5.111667156E0,1.123430252E1,1.627717614E0
2.428271954E0,5.125426292E0,1.115294647E1,1.609173179E0
2.430365622E0,5.130211830E0,1.113380337E1,1.537986755E0
2.432477571E0,5.110470772E0,1.116251755E1,1.470987678E0
2.434577089E0,5.110470772E0,1.126780224E1,1.421934843E0
2.436679608E0,5.072783947E0,1.141615677E1,1.392024517E0
2.438777001E0,5.039284706E0,1.158784199E1,1.409372568E0
2.440877250E0,4.978267670E0,1.177926731E1,1.465603828E0
2.442979565E0,4.926821709E0,1.197547913E1,1.636092424E0
2.445079307E0,4.899304390E0,1.214716434E1,1.840080619E0
2.447180514E0,4.914857864E0,1.230030441E1,2.024926186E0
2.449281832E0,4.944767952E0,1.243370438E1,2.147558212E0
2.451381492E0,5.002793789E0,1.258146191E1,2.227717876E0
2.453481976E0,5.036891460E0,1.269153118E1,2.250449657E0
2.455581759E0,5.075176716E0,1.281536007E1,2.282752752E0
2.457682509E0,5.109274387E0,1.294876003E1,2.257030010E0
2.459783063E0,5.133800983E0,1.311147213E1,2.279761791E0
2.461881147E0,5.143970490E0,1.326401424E1,2.354537487E0
2.463974266E0,5.139782906E0,1.345484161E1,2.429313183E0
2.466084303E0,5.112265587E0,1.366062450E1,2.532802820E0
2.468184176E0,5.069792747E0,1.388076401E1,2.554936409E0
2.470288607E0,5.032105923E0,1.403809261E1,2.577069998E0
2.472383955E0,5.022534847E0,1.414816189E1,2.533401012E0
2.474477135E0,4.969892502E0,1.421516132E1,2.489732027E0
2.476587619E0,4.936393261E0,1.426301765E1,2.479562521E0
2.478688093E0,4.902893543E0,1.428215981E1,2.465205431E0
2.480791507E0,4.850251675E0,1.424925900E1,2.528017044E0
2.482893619E0,4.811966419E0,1.421097374E1,2.590828657E0
2.485002668E0,4.740779877E0,1.416790295E1,2.672782898E0
2.487091028E0,4.640281200E0,1.411107349E1,2.749951363E0
2.489191563E0,4.539782524E0,1.405902958E1,2.836691141E0
2.491288180E0,4.435096741E0,1.400220013E1,2.928216696E0
2.493392011E0,4.320241451E0,1.391605854E1,3.034697294E0
2.495492862E0,4.258625984E0,1.382094383E1,3.174079180E0
2.497593673E0,4.196412563E0,1.370190048E1,3.299702406E0
2.499694593E0,4.134797573E0,1.356790257E1,3.430111170E0
2.501791548E0,4.043870449E0,1.344885921E1,3.565903902E0
2.503882409E0,3.976871252E0,1.336331654E1,3.638286829E0
2.505982985E0,3.915256023E0,1.328674603E1,3.739383698E0
2.508085850E0,3.857828379E0,1.322991657E1,3.845266104E0
2.510199110E0,3.800998688E0,1.317727470E1,3.979862213E0
2.512296706E0,3.782454491E0,1.312941742E1,4.114458561E0
2.514390558E0,3.763910055E0,1.306780243E1,4.282554150E0
2.516498174E0,3.754936934E0,1.301037502E1,4.406980991E0
2.518593185E0,3.764508247E0,1.295294762E1,4.522434711E0
2.520701918E0,3.764508247E0,1.289073372E1,4.566103935E0
2.522799279E0,3.735794306E0,1.283868980E1,4.523631096E0
2.524899836E0,3.701696634E0,1.280519009E1,4.471587181E0
2.526996841E0,3.649054527E0,1.281954765E1,4.404588223E0
2.529088516E0,3.591626883E0,1.282433319E1,4.390231133E0
2.531192509E0,3.553341627E0,1.282493114E1,4.428516388E0
2.533303665E0,3.529413462E0,1.281057453E1,4.447659016E0
2.535405614E0,3.496512175E0,1.282014561E1,4.529015064E0
2.537506434E0,3.443870068E0,1.282971668E1,4.562514782E0
2.539604832E0,3.424727440E0,1.276750374E1,4.572684288E0
2.541706435E0,3.390629768E0,1.270110226E1,4.573282242E0
2.543805058E0,3.385843992E0,1.260060406E1,4.550550461E0
2.545905614E0,3.366103172E0,1.251984596E1,4.541577339E0
2.548006170E0,3.337389469E0,1.246241856E1,4.490131855E0
2.550108210E0,3.279363394E0,1.238644600E1,4.428516388E0
2.552206924E0,3.245265722E0,1.233858967E1,4.371686935E0
2.554308121E0,3.211168051E0,1.227159119E1,4.319643021E0
2.556409104E0,3.139383316E0,1.220997620E1,4.306482315E0
2.558509527E0,3.058027267E0,1.218126202E1,4.307080746E0
2.560609624E0,2.952743053E0,1.214357471E1,4.302893162E0
2.562710423E0,2.857030153E0,1.217288685E1,4.307679176E0
2.564811488E0,2.775674343E0,1.221117210E1,4.345366001E0
2.566912176E0,2.699103832E0,1.225902843E1,4.364508629E0
2.569011582E0,2.622533560E0,1.229312611E1,4.364508629E0
2.571109461E0,2.565105915E0,1.230748367E1,4.364508629E0
2.573202622E0,2.493321180E0,1.232184029E1,4.378865242E0
2.575314072E0,2.421536446E0,1.232243824E1,4.350151539E0
2.577414079E0,2.359323025E0,1.231765270E1,4.336392879E0
2.579516993E0,2.287538528E0,1.229372501E1,4.307679176E0
2.581615067E0,2.234298229E0,1.225603771E1,4.303491592E0
2.583714046E0,2.196012974E0,1.221775246E1,4.270590305E0
2.585806077E0,2.167299032E0,1.216989613E1,4.242474556E0
2.587919196E0,2.157129526E0,1.214656639E1,4.204189301E0
2.590025019E0,2.118844509E0,1.210349560E1,4.161716938E0
2.592110052E0,2.051247120E0,1.207537937E1,4.057030678E0
2.594214178E0,2.006979942E0,1.205623722E1,3.909274101E0
2.596310227E0,1.972882271E0,1.204666519E1,3.799204111E0
2.598421220E0,1.915454507E0,1.208016491E1,3.674777269E0
2.600521867E0,1.862214208E0,1.212862015E1,3.574278831E0
2.602621751E0,1.838286042E0,1.223330593E1,3.549752474E0
2.604720435E0,1.833500385E0,1.231944752E1,3.534198999E0
2.606821397E0,1.834098577E0,1.241516018E1,3.533600807E0
2.608922380E0,1.805384636E0,1.248215961E1,3.537788391E0
2.611022986E0,1.762912035E0,1.255872917E1,3.594617844E0
2.613123724E0,1.758126378E0,1.260658646E1,3.622733593E0
2.615224036E0,1.739582062E0,1.262572861E1,3.699303865E0
2.617325518E0,1.710868239E0,1.264008522E1,3.751347780E0
2.619422563E0,1.673181176E0,1.269272804E1,3.813561201E0
2.621515611E0,1.616351724E0,1.275494099E1,3.884747505E0
2.623626797E0,1.578066587E0,1.278365517E1,3.941577196E0
2.625726925E0,1.535593987E0,1.282194042E1,4.003790379E0
2.627827563E0,1.512263894E0,1.284586811E1,4.094717979E0
2.629917334E0,1.488335729E0,1.286022568E1,4.175475597E0
2.632028826E0,1.479362607E0,1.286501122E1,4.223331928E0
2.634129697E0,1.465005636E0,1.288893890E1,4.261617184E0
2.636231778E0,1.426720500E0,1.287936783E1,4.285545349E0
2.638333280E0,1.393221021E0,1.287996578E1,4.280759811E0
2.640444495E0,1.359721422E0,1.288475132E1,4.266402721E0
2.642531399E0,1.345364571E0,1.287996578E1,4.256831646E0
2.644631416E0,1.311864972E0,1.285603809E1,4.276572227E0
2.646729632E0,1.273579836E0,1.282732391E1,4.305884361E0
2.648836342E0,1.259222865E0,1.281356525E1,4.329812527E0
2.650929644E0,1.245464206E0,1.281356525E1,4.377668858E0
2.653033617E0,1.235892892E0,1.281356525E1,4.392025948E0
2.655131295E0,1.250249863E0,1.281835079E1,4.401597023E0
2.657234108E0,1.268794179E0,1.281356525E1,4.348955154E0
2.659334032E0,1.268794179E0,1.279920864E1,4.267599106E0
2.661436205E0,1.272981644E0,1.281356525E1,4.186243057E0
2.663537147E0,1.244267821E0,1.286142159E1,4.118646145E0
2.665637540E0,1.239482164E0,1.288535023E1,4.113860130E0
2.667739022E0,1.229910851E0,1.292782211E1,4.113262177E0
2.669837939E0,1.201196909E0,1.297567940E1,4.141975880E0
2.671941912E0,1.144367456E0,1.300020504E1,4.161118507E0
2.674051278E0,1.101296663E0,1.302891922E1,4.174877167E0
2.676140134E0,1.048654556E0,1.302891922E1,4.189832687E0
2.678240182E0,9.816554785E-1,1.301994610E1,4.218546391E0
2.680337685E0,9.098708034E-1,1.299123192E1,4.257429600E0
2.682437193E0,8.476574421E-1,1.298644638E1,4.310071945E0
2.684526283E0,7.429714203E-1,1.293918800E1,4.368097782E0
2.686642912E0,6.520441771E-1,1.292064381E1,4.497908592E0
2.688743193E0,5.665007830E-1,1.290628719E1,4.607978344E0
2.690848478E0,4.809573591E-1,1.290209961E1,4.698905468E0
2.692941394E0,3.708875179E-1,1.290209961E1,4.790431023E0
2.695034636E0,2.662015259E-1,1.287876987E1,4.838287354E0
2.697145232E0,1.800599098E-1,1.285484123E1,4.858027935E0
2.699245929E0,7.417750359E-2,1.285065365E1,4.853840828E0
2.701349872E0,-4.067798331E-2,1.281296730E1,4.820939541E0
2.703447295E0,-1.316052526E-1,1.276989651E1,4.840680122E0
2.705545419E0,-2.129612118E-1,1.275135231E1,4.869394302E0
2.707637928E0,-2.703889608E-1,1.269870949E1,4.861019135E0
2.709748310E0,-3.332005441E-1,1.263709450E1,4.880760193E0
2.711848916E0,-3.762713671E-1,1.257009602E1,4.862215519E0
2.713952544E0,-4.342973232E-1,1.248933792E1,4.786841869E0
2.716048990E0,-4.827519655E-1,1.244148159E1,4.744369030E0
2.718145507E0,-5.264210105E-1,1.237508011E1,4.649254322E0
2.720251300E0,-5.748756528E-1,1.231765270E1,4.539782524E0
2.722352375E0,-5.946164131E-1,1.225603771E1,4.450051785E0
2.724453816E0,-6.478567123E-1,1.224168110E1,4.339982033E0
2.726551259E0,-6.819544435E-1,1.221775246E1,4.206582069E0
2.728649566E0,-7.160521746E-1,1.219442272E1,4.121038914E0
2.730743896E0,-7.453642488E-1,1.214656639E1,4.035495281E0
2.732854970E0,-7.836494446E-1,1.207537937E1,3.973880291E0
2.734956329E0,-8.129615188E-1,1.201316643E1,3.921836376E0
2.737058085E0,-8.416753411E-1,1.193659592E1,3.913461447E0
2.739154439E0,-8.751748800E-1,1.188455200E1,3.947559118E0
2.741247660E0,-8.895317912E-1,1.186062336E1,4.014558315E0
2.743357239E0,-9.182456732E-1,1.187976646E1,4.071985722E0
2.745457733E0,-9.601200819E-1,1.195633698E1,4.166502476E0
2.747558197E0,-1.003190875E0,1.202812099E1,4.228117466E0
2.749648263E0,-1.055234790E0,1.209990597E1,4.289732933E0
2.751757649E0,-1.098305583E0,1.211426258E1,4.323232174E0
2.753860127E0,-1.155733347E0,1.209033489E1,4.328616142E0
2.755965261E0,-1.194018483E0,1.207657623E1,4.371686935E0
2.758070313E0,-1.255633712E0,1.202871990E1,4.420141697E0
2.760159087E0,-1.308275819E0,1.196231842E1,4.516452789E0
2.762252329E0,-1.384247899E0,1.190489101E1,4.631906509E0
2.764360758E0,-1.446461320E0,1.183370399E1,4.776672363E0
2.766463705E0,-1.512862086E0,1.177627659E1,4.949553490E0
2.768567943E0,-1.579262972E0,1.173380375E1,5.064409256E0
2.770664429E0,-1.640878081E0,1.170509052E1,5.184648514E0
2.772765503E0,-1.707877159E0,1.167218876E1,5.204389095E0
2.774865865E0,-1.770090580E0,1.162433243E1,5.262415409E0
2.776966452E0,-1.846660852E0,1.156271744E1,5.286941528E0
2.779066397E0,-1.918445587E0,1.149571800E1,5.316253662E0
2.781166860E0,-2.018944025E0,1.142931747E1,5.336592674E0
2.783265951E0,-2.115255117E0,1.135813046E1,5.356333256E0
2.785361492E0,-2.196611166E0,1.127677536E1,5.376672268E0
2.787467683E0,-2.292324066E0,1.119601727E1,5.377270699E0
2.789568237E0,-2.379063845E0,1.110090256E1,5.364109993E0
2.791671540E0,-2.480160713E0,1.099621677E1,5.350949764E0
2.793773408E0,-2.590230465E0,1.090588760E1,5.376074314E0
2.795882529E0,-2.681157827E0,1.082512951E1,5.405984402E0
2.797971579E0,-2.757728100E0,1.078205872E1,5.459224701E0
2.800072306E0,-2.839084148E0,1.073958588E1,5.450251579E0
2.802170858E0,-2.897109985E0,1.067737293E1,5.398207664E0
2.804273581E0,-2.969492912E0,1.065882874E1,5.288736343E0
2.806373953E0,-3.046661377E0,1.061575794E1,5.126622677E0
2.808474235E0,-3.100499868E0,1.059721375E1,4.964509010E0
2.810574789E0,-3.153740168E0,1.056849957E1,4.811966419E0
2.812675803E0,-3.197409153E0,1.052124119E1,4.697709084E0
2.814776154E0,-3.279961586E0,1.045424175E1,4.564907551E0
2.816876843E0,-3.337389469E0,1.044526863E1,4.483551502E0
2.818978375E0,-3.414557934E0,1.041176987E1,4.388436794E0
2.821078136E0,-3.463012457E0,1.038843918E1,4.302893162E0
2.823178865E0,-3.535395384E0,1.035494041E1,4.212564468E0
2.825279359E0,-3.598206997E0,1.033639526E1,4.127020836E0
2.827376721E0,-3.636492252E0,1.034118080E1,4.040879250E0
2.829469738E0,-3.684946775E0,1.030289650E1,3.974478483E0
2.831580466E0,-3.704687595E0,1.028435135E1,3.917050600E0
2.833681022E0,-3.709473372E0,1.026999474E1,3.893720627E0
2.835784822E0,-3.742972851E0,1.026999474E1,3.898506403E0
2.837883710E0,-3.795016766E0,1.027478027E1,3.965505362E0
2.839990429E0,-3.795016766E0,1.028435135E1,4.007977962E0
2.842083416E0,-3.799204111E0,1.030349445E1,4.074976921E0
2.844183290E0,-3.784847260E0,1.030349445E1,4.098905087E0
2.846280622E0,-3.746562004E0,1.031785107E1,4.113262177E0
2.848379204E0,-3.689134359E0,1.033160973E1,4.088735580E0
2.850469200E0,-3.627519131E0,1.032682419E1,4.007379532E0
2.852587872E0,-3.536591768E0,1.032682419E1,3.945166349E0
2.854687746E0,-3.388834953E0,1.028794098E1,3.868596077E0
2.856791029E0,-3.513859987E0,1.038365364E1,3.724428415E0
2.858887505E0,-3.590430260E0,1.037468052E1,3.739383698E0
2.860985334E0,-3.488735437E0,1.037408257E1,3.882354736E0
2.863078677E0,-3.440280676E0,1.040279675E1,3.982254982E0
2.865188957E0,-3.459423304E0,1.042672443E1,4.025325775E0
2.867290256E0,-3.535395384E0,1.043629551E1,4.159324169E0
2.869393577E0,-3.597010612E0,1.043629551E1,4.336392879E0
2.871489617E0,-3.614956856E0,1.040339470E1,4.527818680E0
2.873587212E0,-3.614358664E0,1.036989498E1,4.690530777E0
2.875691928E0,-3.619144201E0,1.035553837E1,4.762315273E0
2.877792534E0,-3.643072367E0,1.033639526E1,4.782055855E0
2.879893852E0,-3.667000771E0,1.032203865E1,4.734199524E0
2.881996280E0,-3.696312666E0,1.030289650E1,4.634299278E0
2.884106205E0,-3.749552965E0,1.025085258E1,4.543970108E0
2.886196201E0,-3.778865099E0,1.021256733E1,4.444069862E0
2.888295057E0,-3.803391695E0,1.015513897E1,4.372883320E0
2.890392967E0,-3.817748547E0,1.007916737E1,4.316053867E0
2.892496819E0,-3.803989887E0,1.002173901E1,4.268795490E0
2.894596917E0,-3.799802303E0,9.945169449E0,4.240679741E0
2.896697859E0,-3.766302824E0,9.882955551E0,4.169493675E0
2.898797540E0,-3.733401537E0,9.815957069E0,4.079164505E0
2.900898593E0,-3.690928936E0,9.792028427E0,4.007977962E0
2.902999770E0,-3.662813187E0,9.782457352E0,3.921836376E0
2.905097009E0,-3.653241873E0,9.801599503E0,3.826123476E0
2.907190098E0,-3.615555048E0,9.811170578E0,3.763311863E0
2.909300266E0,-3.567698479E0,9.839286804E0,3.758526087E0
2.911401045E0,-3.514458179E0,9.906285286E0,3.795614958E0
2.913503859E0,-3.442075491E0,9.963115692E0,3.828516245E0
2.915600671E0,-3.360719442E0,1.000618649E1,3.818346739E0
2.917702183E0,-3.251247883E0,1.004865837E1,3.755535126E0
2.919804945E0,-3.145963669E0,1.009113121E1,3.654438496E0
2.921904595E0,-3.036491871E0,1.013360405E1,3.543770313E0
2.924004582E0,-2.945564747E0,1.016710377E1,3.457030535E0
2.926104782E0,-2.849851847E0,1.020479012E1,3.394218922E0
2.928205998E0,-2.740380049E0,1.020957565E1,3.332005501E0
2.930306787E0,-2.654238462E0,1.022812080E1,3.264408350E0
2.932406590E0,-2.568096876E0,1.022812080E1,3.226123095E0
2.934507348E0,-2.525624275E0,1.024187946E1,3.178266764E0
2.936608729E0,-2.477767944E0,1.021795082E1,3.135195971E0
2.938710475E0,-2.434697151E0,1.021795082E1,3.087339401E0
2.940817479E0,-2.382653236E0,1.020837975E1,3.058625460E0
2.942909438E0,-2.353939295E0,1.021316528E1,3.049054146E0
2.945009821E0,-2.330011129E0,1.023170948E1,3.014956474E0
2.947108383E0,-2.334796667E0,1.026042366E1,3.019742250E0
2.949209254E0,-2.315055847E0,1.031306553E1,3.047857761E0
2.951303705E0,-2.300698996E0,1.037049294E1,3.061616659E0
2.953413152E0,-2.276172638E0,1.041296577E1,3.089732170E0
2.955512558E0,-2.242672920E0,1.040818024E1,3.089732170E0
2.957615819E0,-2.204986095E0,1.036510944E1,3.085544825E0
2.959714563E0,-2.181057930E0,1.030289650E1,3.061616659E0
2.961814560E0,-2.157129526E0,1.022154045E1,3.038884640E0
2.963915288E0,-2.137987137E0,1.018325520E1,3.053241730E0
2.966015284E0,-2.123630047E0,1.014975548E1,3.082553864E0
2.968116654E0,-2.123630047E0,1.011206818E1,3.116053343E0
2.970218857E0,-2.114058733E0,1.010249710E1,3.173480988E0
2.972323420E0,-2.123630047E0,1.011685371E1,3.163909674E0
2.974417496E0,-2.137987137E0,1.011685371E1,3.163909674E0
2.976516689E0,-2.152343988E0,1.011685371E1,3.159124136E0
2.978615800E0,-2.137987137E0,1.009771156E1,3.125624657E0
2.980719274E0,-2.133201361E0,1.006899738E1,3.140579700E0
2.982817469E0,-2.152942181E0,1.000678444E1,3.141177893E0
2.984911118E0,-2.172084808E0,9.968499184E0,3.169891834E0
2.987021898E0,-2.210369825E0,9.945169449E0,3.170490026E0
2.989121436E0,-2.243869543E0,9.916455269E0,3.128017426E0
2.991224401E0,-2.282752752E0,9.868598938E0,3.099901676E0
2.993321477E0,-2.330609322E0,9.826126099E0,3.057429075E0
2.995420233E0,-2.368894339E0,9.778269768E0,3.062214851E0
2.997523881E0,-2.398206472E0,9.701699257E0,3.063411236E0
2.999624141E0,-2.393420935E0,9.620942116E0,3.087937593E0
3.001723546E0,-2.393420935E0,9.544371605E0,3.064607620E0
3.003815395E0,-2.379662037E0,9.463015556E0,3.013161898E0
3.005916032E0,-2.394617319E0,9.410373688E0,2.913261652E0
3.008027055E0,-2.385644197E0,9.386445045E0,2.779263496E0
3.010128689E0,-2.367697954E0,9.376873970E0,2.606980324E0
3.012227595E0,-2.339582443E0,9.386445045E0,2.458625317E0
3.014315588E0,-2.320439816E0,9.434301376E0,2.329412937E0
3.016420640E0,-2.277967215E0,9.486943245E0,2.223530531E0
3.018535214E0,-2.211566210E0,9.515059471E0,2.108076811E0
3.020633124E0,-2.144567251E0,9.558130264E0,1.983649969E0
3.022732530E0,-2.073380709E0,9.581459999E0,1.844268084E0
3.024829525E0,-2.021337032E0,9.624530792E0,1.738983870E0
3.026931780E0,-1.983051777E0,9.634101868E0,1.671386600E0
3.029030586E0,-1.974078655E0,9.653244972E0,1.642672777E0
3.031132799E0,-1.944766641E0,9.657432556E0,1.685743570E0
3.033232581E0,-1.935195327E0,9.652647018E0,1.771885157E0
3.035334001E0,-1.929811478E0,9.619147301E0,1.858026743E0
3.037435229E0,-1.891526341E0,9.556933403E0,1.944766641E0
3.039535946E0,-1.886142492E0,9.489934921E0,2.021935225E0
3.041635464E0,-1.876571178E0,9.423533440E0,2.065604210E0
3.043735074E0,-1.895713687E0,9.375677109E0,2.065604210E0
3.045834317E0,-1.933998942E0,9.346963882E0,2.075773716E0
3.047933459E0,-1.968096614E0,9.323035240E0,2.052443504E0
3.050029701E0,-2.025524378E0,9.299705505E0,2.090728760E0
3.052138700E0,-2.078166485E0,9.256634712E0,2.096112728E0
3.054239713E0,-2.130808592E0,9.175876617E0,2.125424623E0
3.056341031E0,-2.178664923E0,9.080163956E0,2.160120726E0
3.058439899E0,-2.227119684E0,8.961120605E0,2.146960020E0
3.060537228E0,-2.289931297E0,8.822935104E0,2.105684042E0
3.062630338E0,-2.328814745E0,8.693722725E0,2.044667006E0
3.064740435E0,-2.367697954E0,8.574680328E0,1.959721804E0
3.066841713E0,-2.416152716E0,8.450851440E0,1.898704767E0
3.068945219E0,-2.455035925E0,8.331210136E0,1.823929071E0
3.071047758E0,-2.465205431E0,8.231309891E0,1.762313843E0
3.073157142E0,-2.484946251E0,8.126026154E0,1.720439434E0
3.075244464E0,-2.499901533E0,8.040482521E0,1.664208174E0
3.077344683E0,-2.485544443E0,7.963912010E0,1.612164259E0
3.079441647E0,-2.486142635E0,7.896913052E0,1.560120344E0
3.081545530E0,-2.477169752E0,7.849056244E0,1.498505235E0
3.083646432E0,-2.486740828E0,7.801199913E0,1.451246977E0
3.085747089E0,-2.477767944E0,7.753343582E0,1.422533035E0
3.087848305E0,-2.496910334E0,7.715656757E0,1.394417405E0
3.089947599E0,-2.520838737E0,7.672585964E0,1.395015597E0
3.092048124E0,-2.525624275E0,7.634300709E0,1.386042476E0
3.094145953E0,-2.496910334E0,7.591229916E0,1.395613790E0
3.096240375E0,-2.473580360E0,7.524230957E0,1.420140266E0
3.098349821E0,-2.425724030E0,7.476374149E0,1.429711580E0
3.100450549E0,-2.382653236E0,7.438089371E0,1.430309772E0
3.102553577E0,-2.344367981E0,7.428517818E0,1.425524116E0
3.104650613E0,-2.301297188E0,7.427919865E0,1.420738459E0
3.106741668E0,-2.291725874E0,7.461419106E0,1.372283816E0
3.108851582E0,-2.296511650E0,7.485347271E0,1.353141189E0
3.110953601E0,-2.291725874E0,7.528418064E0,1.352542996E0
3.113056802E0,-2.281556368E0,7.581060410E0,1.409372568E0
3.115156188E0,-2.261815548E0,7.652246952E0,1.480558991E0
3.117261240E0,-2.218146563E0,7.728816986E0,1.584646821E0
3.119353423E0,-2.169692039E0,7.795217991E0,1.670190215E0
3.121447152E0,-2.126022816E0,7.847859859E0,1.770090580E0
3.123554972E0,-2.091925144E0,7.886145115E0,1.874776483E0
3.125657490E0,-2.067398787E0,7.904689789E0,1.955534339E0
3.127760304E0,-2.053041935E0,7.880761147E0,2.056032896E0
3.129858620E0,-2.023729801E0,7.828119278E0,2.133201361E0
3.131959125E0,-1.990230203E0,7.727620602E0,2.191227436E0
3.134059153E0,-1.966900229E0,7.589435101E0,2.240280151E0
3.136159983E0,-1.938186288E0,7.460222721E0,2.294118643E0
3.138259267E0,-1.933400750E0,7.340581894E0,2.309672117E0
3.140353504E0,-1.938186288E0,7.202396393E0,2.320439816E0
3.142461862E0,-1.943570137E0,7.106683254E0,2.340180635E0
3.144561736E0,-1.948355794E0,6.991827965E0,2.346162558E0
3.146661886E0,-1.977667928E0,6.887141705E0,2.337787628E0
3.148748434E0,-2.006381750E0,6.805785656E0,2.338385820E0
3.150845601E0,-2.025524378E0,6.734599113E0,2.339582443E0
3.152964498E0,-2.045265198E0,6.681957245E0,2.349751949E0
3.155068257E0,-2.073979139E0,6.605386734E0,2.331207514E0
3.157169891E0,-2.074577332E0,6.543771744E0,2.269592285E0
3.159264222E0,-2.084746838E0,6.471987247E0,2.169692039E0
3.161357696E0,-2.080559254E0,6.395416737E0,1.993819475E0
3.163466929E0,-2.086541414E0,6.319444656E0,1.831705689E0
3.165565806E0,-2.102094650E0,6.214160442E0,1.674975872E0
3.167667928E0,-2.102692842E0,6.118447304E0,1.532602906E0
3.169760945E0,-2.127219439E0,6.004190445E0,1.452443361E0
3.171857951E0,-2.156531334E0,5.908477306E0,1.429113269E0
3.173959208E0,-2.181057930E0,5.837290764E0,1.382453322E0
3.176066763E0,-2.209771633E0,5.808577061E0,1.348953724E0
3.178173564E0,-2.257628202E0,5.784648895E0,1.339980721E0
3.180273580E0,-2.282154560E0,5.780461311E0,1.296909928E0
3.182370677E0,-2.310868502E0,5.780461311E0,1.249053478E0
3.184462474E0,-2.325823545E0,5.751747608E0,1.192223907E0
3.186573406E0,-2.340180635E0,5.708676815E0,1.121037364E0
3.188674531E0,-2.374278307E0,5.670391560E0,1.102493048E0
3.190776601E0,-2.326421738E0,5.636891842E0,1.092921734E0
3.192872589E0,-2.312064886E0,5.612963676E0,1.097707391E0
3.194966930E0,-2.278565407E0,5.627320766E0,1.083350420E0
3.197075909E0,-2.230708838E0,5.641677380E0,1.097707391E0
3.199176271E0,-2.167897224E0,5.698507309E0,1.091725349E0
3.201279104E0,-2.100898266E0,5.751149178E0,1.062413216E0
3.203375479E0,-2.033899307E0,5.812764645E0,1.013958573E0
3.205468914E0,-1.933400750E0,5.874379635E0,9.750752449E-1
3.207578930E0,-1.852642894E0,5.907878876E0,9.122636318E-1
3.209679169E0,-1.742573142E0,5.926423550E0,8.925228715E-1
3.211781943E0,-1.632503271E0,5.916851997E0,8.829515576E-1
3.213878012E0,-1.522433400E0,5.897111416E0,9.068797827E-1
3.215968334E0,-1.387837172E0,5.848656654E0,9.355936646E-1
3.218069083E0,-1.244267821E0,5.810371399E0,9.547362328E-1
3.220169750E0,-1.086341500E0,5.742774487E0,9.595218897E-1
3.222273428E0,-9.337990284E-1,5.718247890E0,9.164510965E-1
3.224372926E0,-8.237292171E-1,5.684748173E0,8.494520187E-1
3.226473675E0,-6.903293133E-1,5.679364681E0,7.627122402E-1
3.228573132E0,-6.000002623E-1,5.703292847E0,6.239284873E-1
3.230668519E0,-5.240281820E-1,5.745765209E0,4.989035130E-1
3.232775229E0,-4.522434771E-1,5.784050465E0,3.643072546E-1
3.234875480E0,-4.001995921E-1,5.812166214E0,2.350948304E-1
3.236977968E0,-3.625126183E-1,5.826523304E0,1.345962733E-1
3.239077537E0,-3.433700502E-1,5.850451469E0,6.699903309E-2
3.241177980E0,-3.194418252E-1,5.855237007E0,5.742774159E-2
3.243281110E0,-3.194418252E-1,5.860022545E0,9.092725813E-2
3.245380668E0,-3.284149170E-1,5.845665932E0,1.770688742E-1
3.247489087E0,-3.332005441E-1,5.826523304E0,2.440679073E-1
3.249578523E0,-3.188436031E-1,5.778666496E0,2.973082066E-1
3.251680248E0,-2.853440940E-1,5.726024628E0,3.266202807E-1
3.253778556E0,-2.518445849E-1,5.697310925E0,3.122633696E-1
3.255882439E0,-2.183450609E-1,5.659025669E0,2.691925466E-1
3.257981998E0,-1.710868180E-1,5.635097504E0,2.123630047E-1
3.260081901E0,-1.190429255E-1,5.624927998E0,1.118644550E-1
3.262182955E0,-6.640082598E-2,5.610570908E0,1.615155302E-2
3.264285250E0,-2.452643216E-2,5.567500114E0,-1.076770201E-1
3.266384880E0,2.333002165E-2,5.553143024E0,-2.129612118E-1
3.268487673E0,8.973085135E-2,5.505286694E0,-2.799602449E-1
3.270596774E0,1.417747438E-1,5.475974560E0,-3.224328458E-1
3.272695345E0,2.327020019E-1,5.432903767E0,-3.367897868E-1
3.274798983E0,3.236292601E-1,5.370690346E0,-3.266202807E-1
3.276896853E0,4.145565331E-1,5.336592674E0,-3.314059377E-1
3.278997704E0,5.198407173E-1,5.288736343E0,-3.361915946E-1
3.281097486E0,6.251249313E-1,5.278566837E0,-3.409772217E-1
3.283198225E0,7.304090858E-1,5.321637630E0,-3.655036688E-1
3.285299218E0,8.261220455E-1,5.378467083E0,-3.762713671E-1
3.287399438E0,9.457631707E-1,5.435296535E0,-4.295116663E-1
3.289500827E0,1.046261668E0,5.506483078E0,-4.594219327E-1
3.291600182E0,1.151545882E0,5.592026711E0,-5.318048596E-1
3.293699252E0,1.261615753E0,5.663811207E0,-6.191428304E-1
3.295793409E0,1.361516118E0,5.730212212E0,-7.250252366E-1
3.297900781E0,1.442872047E0,5.758327484E0,-7.878368497E-1
3.300002627E0,1.533799291E0,5.782256126E0,-8.644071817E-1
3.302105024E0,1.595414519E0,5.772086620E0,-9.361918569E-1
3.304205223E0,1.681556106E0,5.776872158E0,-1.003789067E0
3.306307174E0,1.747956991E0,5.767300606E0,-1.051645517E0
3.308404718E0,1.781456470E0,5.743372440E0,-1.094716311E0
3.310505140E0,1.791027784E0,5.742774487E0,-1.075573802E0
3.312605218E0,1.810768485E0,5.742774487E0,-1.013360381E0
3.314702478E0,1.820339799E0,5.704489231E0,-9.505487680E-1
3.316789870E0,1.820339799E0,5.690132141E0,-8.979067206E-1
3.318907719E0,1.811366796E0,5.694917679E0,-8.213363886E-1
3.321008345E0,1.778465390E0,5.700301647E0,-7.304090858E-1
3.323114363E0,1.774278045E0,5.690730572E0,-6.059823632E-1
3.325210280E0,1.764706731E0,5.638088226E0,-5.102694035E-1
3.327314499E0,1.765304923E0,5.599802971E0,-3.708875179E-1
3.329410303E0,1.774876237E0,5.537590027E0,-2.895315289E-1
3.331511183E0,1.794018745E0,5.461019516E0,-2.410768867E-1
3.333610111E0,1.822732687E0,5.374877930E0,-2.207378894E-1
3.335711776E0,1.875374794E0,5.341378212E0,-2.638086975E-1
3.337815221E0,1.922633052E0,5.293521881E0,-3.254238665E-1
3.339925033E0,1.965703845E0,5.283950806E0,-3.780659735E-1
3.342014042E0,2.012962103E0,5.288137913E0,-4.839483798E-1
3.344114069E0,2.060220242E0,5.355136871E0,-5.898307562E-1
3.346211583E0,2.117648125E0,5.402993679E0,-7.094719410E-1
3.348317052E0,2.203191519E0,5.488536835E0,-8.494520187E-1
3.350423913E0,2.279761791E0,5.559723377E0,-9.696913958E-1
3.352516596E0,2.327019930E0,5.665007591E0,-1.080957651E0
3.354617101E0,2.389233351E0,5.764907837E0,-1.210768223E0
3.356716334E0,2.450848579E0,5.879165173E0,-1.302891970E0
3.358820074E0,2.489133835E0,6.013163090E0,-1.399801254E0
3.360926213E0,2.532204628E0,6.117849350E0,-1.482353687E0
3.363019688E0,2.565704107E0,6.208776474E0,-1.526620865E0
3.365117721E0,2.584846735E0,6.289534092E0,-1.551147223E0
3.367216659E0,2.603989124E0,6.337390900E0,-1.590030670E0
3.369319066E0,2.623131752E0,6.385247231E0,-1.590030670E0
3.371421890E0,2.614158630E0,6.437889099E0,-1.590628862E0
3.373523433E0,2.585444927E0,6.485745907E0,-1.548156261E0
3.375622686E0,2.571686029E0,6.528816700E0,-1.472184181E0
3.377723181E0,2.553141832E0,6.571887493E0,-1.390828133E0
3.379822982E0,2.510071039E0,6.528816700E0,-1.304686546E0
3.381921371E0,2.467598438E0,6.466603279E0,-1.222732425E0
3.384014307E0,2.453241348E0,6.381059647E0,-1.159322619E0
3.386125453E0,2.434098721E0,6.285346985E0,-1.110867858E0
3.388225805E0,2.438884497E0,6.189633846E0,-1.052243710E0
3.390329798E0,2.410170555E0,6.123233318E0,-1.003789067E0
3.392423885E0,2.386242390E0,6.113661766E0,-9.655039310E-1
3.394517096E0,2.324028969E0,6.099305153E0,-9.559326172E-1
3.396628027E0,2.276172638E0,6.147161484E0,-9.750752449E-1
3.398728389E0,2.209173441E0,6.186044693E0,-1.022931695E0
3.400832078E0,2.136790514E0,6.209972858E0,-1.085145116E0
3.402929338E0,2.050648928E0,6.276971817E0,-1.119242787E0
3.405030879E0,1.964507341E0,6.301498413E0,-1.124028444E0
3.407132117E0,1.869392633E0,6.339783669E0,-1.066600680E0
3.409231014E0,1.821536183E0,6.344569206E0,-1.013958573E0
3.411331599E0,1.783251047E0,6.359524250E0,-9.852447510E-1
3.413432175E0,1.745564103E0,6.378666878E0,-9.708877802E-1
3.415530127E0,1.697707653E0,6.397809505E0,-9.708877802E-1
3.417622962E0,1.701895118E0,6.416952133E0,-1.009771109E0
3.419733730E0,1.701895118E0,6.431309223E0,-1.071984529E0
3.421835059E0,1.730010748E0,6.412166595E0,-1.143769264E0
3.423938137E0,1.748555183E0,6.402595043E0,-1.262812138E0
3.426032050E0,1.738385677E0,6.359524250E0,-1.381855130E0
3.428127560E0,1.747358680E0,6.345167637E0,-1.491924882E0
3.430237626E0,1.704287887E0,6.359524250E0,-1.582852125E0
3.432337847E0,1.703689694E0,6.359524250E0,-1.621137381E0
3.434439786E0,1.704287887E0,6.349953175E0,-1.578066587E0
3.436537971E0,1.713859200E0,6.335596085E0,-1.520638824E0
3.438639391E0,1.733600020E0,6.311667919E0,-1.429711580E0
3.440740780E0,1.762313843E0,6.340381622E0,-1.381855130E0
3.442839840E0,1.805384636E0,6.359524250E0,-1.382453322E0
3.444940213E0,1.862812400E0,6.382854462E0,-1.401595831E0
3.447040647E0,1.958525300E0,6.397211552E0,-1.426122308E0
3.449142026E0,2.068595171E0,6.396613121E0,-1.464407444E0
3.451242398E0,2.163709879E0,6.387042046E0,-1.560718536E0
3.453342495E0,2.230110645E0,6.396014690E0,-1.699502230E0
3.455443194E0,2.291725874E0,6.458228111E0,-1.881955028E0
3.457544451E0,2.373081923E0,6.519843578E0,-1.973480463E0
3.459639869E0,2.459223509E0,6.581458569E0,-1.993221283E0
3.461727627E0,2.564507723E0,6.648457527E0,-2.003988981E0
3.463845080E0,2.656033039E0,6.719644070E0,-1.966302037E0
3.465946144E0,2.747558594E0,6.800402164E0,-1.914856315E0
3.468051115E0,2.834298372E0,6.895516872E0,-1.825125456E0
3.470147010E0,2.930609465E0,6.995417118E0,-1.706680775E0
3.472248156E0,3.022733212E0,7.133602619E0,-1.560120344E0
3.474349251E0,3.143570662E0,7.262216568E0,-1.418345571E0
3.476449023E0,3.230908871E0,7.376473904E0,-1.275972724E0
3.478548999E0,3.293720484E0,7.496115208E0,-1.158126116E0
3.480647021E0,3.346960783E0,7.619943619E0,-1.054038405E0
3.482740232E0,3.391227961E0,7.743772507E0,-9.595218897E-1
3.484849719E0,3.430111170E0,7.844270706E0,-8.650053740E-1
3.486949705E0,3.445066452E0,7.953742504E0,-7.992027402E-1
3.489053241E0,3.460021496E0,8.035098076E0,-7.142575383E-1
3.491153501E0,3.494119167E0,8.068597794E0,-6.137589812E-1
3.493250720E0,3.527618885E0,8.077570915E0,-5.521438122E-1
3.495344206E0,3.561716557E0,8.020143509E0,-4.989035130E-1
3.497455290E0,3.613760471E0,7.929215908E0,-4.600201547E-1
3.499554552E0,3.666402578E0,7.814360619E0,-4.444667995E-1
3.501657763E0,3.704687595E0,7.737790108E0,-4.582255483E-1
3.503753396E0,3.742374659E0,7.680362701E0,-5.204389095E-1
3.505844684E0,3.784847260E0,7.670791149E0,-6.681957245E-1
3.507948190E0,3.822534084E0,7.661220074E0,-8.452646136E-1
3.510057788E0,3.888336897E0,7.666005611E0,-1.041476011E0
3.512160144E0,3.930211306E0,7.670791149E0,-1.261615753E0
3.514258167E0,3.963112593E0,7.674978733E0,-1.457827210E0
3.516346759E0,4.005585194E0,7.651050568E0,-1.610369682E0
3.518449950E0,4.052843571E0,7.631907940E0,-1.758724689E0
3.520560718E0,4.080958843E0,7.603193760E0,-1.806581140E0
3.522663654E0,4.119244099E0,7.564908981E0,-1.820339799E0
3.524764332E0,4.176671982E0,7.569694519E0,-1.763510346E0
3.526861775E0,4.196412563E0,7.593024254E0,-1.658226132E0
3.528962819E0,4.207180500E0,7.669594765E0,-1.530210137E0
3.531062752E0,4.212564468E0,7.765307903E0,-1.397408366E0
3.533163410E0,4.204189301E0,7.865208149E0,-1.240080357E0
3.535263721E0,4.204787731E0,7.927421570E0,-1.064207911E0
3.537361938E0,4.210769653E0,7.989634991E0,-9.068797827E-1
3.539455453E0,4.225724697E0,8.013563156E0,-8.015955687E-1
3.541566913E0,4.245465755E0,8.027321815E0,-6.969096065E-1
3.543666218E0,4.255036831E0,8.017750740E0,-6.251249313E-1
3.545769521E0,4.279563427E0,8.032107353E0,-5.437689424E-1
3.547862223E0,4.317848682E0,8.036892891E0,-4.630111754E-1
3.549949411E0,4.337589264E0,8.084749222E0,-3.966103494E-1
3.552068439E0,4.366901398E0,8.146365166E0,-3.110669553E-1
3.554168578E0,4.396811485E0,8.275577545E0,-1.830509305E-1
3.556272715E0,4.426123619E0,8.404191017E0,-1.178465188E-1
3.558371002E0,4.498506546E0,8.571090698E0,-8.614161611E-2
3.560475840E0,4.565505505E0,8.723632812E0,-1.304088384E-1
3.562572285E0,4.632504463E0,8.857032776E0,-2.129612118E-1
3.564672699E0,4.699503899E0,8.947959900E0,-3.433700502E-1
3.566770803E0,4.775475979E0,8.985647202E0,-4.683950245E-1
3.568872498E0,4.832305431E0,8.995218277E0,-5.832505226E-1
3.570973083E0,4.860421181E0,9.014361382E0,-6.789634228E-1
3.573074320E0,4.889134884E0,9.047860146E0,-7.369893789E-1
3.575175456E0,4.927420139E0,9.109476089E0,-7.615157962E-1
3.577275432E0,4.975874901E0,9.195617676E0,-7.525427341E-1
3.579375346E0,4.995017052E0,9.305088997E0,-7.010970116E-1
3.581473399E0,5.024329185E0,9.429515839E0,-7.022934556E-1
3.583567200E0,5.048257351E0,9.534201622E0,-7.034898400E-1
3.585677501E0,5.063212872E0,9.610772133E0,-6.849454641E-1
3.587777599E0,5.063212872E0,9.668199539E0,-6.807580590E-1
3.589880717E0,5.073382378E0,9.715457916E0,-6.143572330E-1
3.591979706E0,5.059623718E0,9.720243454E0,-5.234299302E-1
3.594079774E0,5.059623718E0,9.729815483E0,-4.229314029E-1
3.596176850E0,5.045864582E0,9.748957634E0,-3.038884699E-1
3.598266888E0,5.027918816E0,9.777671814E0,-1.609173268E-1
3.600380768E0,5.014159679E0,9.782457352E0,-2.213360928E-2
3.602481476E0,5.014758110E0,9.835099220E0,1.304088384E-1
3.604585806E0,4.987240791E0,9.868598938E0,3.020938635E-1
3.606683157E0,4.978267670E0,9.911669731E0,4.887340367E-1
3.608784018E0,4.945964336E0,9.949954987E0,6.891329288E-1
3.610883505E0,4.913063049E0,9.988240242E0,8.656035662E-1
3.612983796E0,4.890331268E0,9.993025780E0,1.037886858E0
3.615080669E0,4.862215519E0,9.983454704E0,1.186241865E0
3.617175030E0,4.871787071E0,9.940383911E0,1.291526079E0
3.619286713E0,4.881956577E0,9.849455833E0,1.354337573E0
3.621395519E0,4.915455818E0,9.782457352E0,1.398006678E0
3.623489605E0,4.929812908E0,9.701699257E0,1.456032634E0
3.625586326E0,4.934598446E0,9.658628464E0,1.480558991E0
3.627676027E0,4.939383984E0,9.625128746E0,1.481157184E0
3.629789450E0,4.953741074E0,9.625128746E0,1.485344648E0
3.631890443E0,4.953741074E0,9.644271851E0,1.447059512E0
3.633992026E0,4.958526611E0,9.682557106E0,1.441675663E0
3.636090100E0,4.944169998E0,9.701699257E0,1.456032634E0
3.638190625E0,4.925027370E0,9.739984512E0,1.518245935E0
3.640292116E0,4.916054249E0,9.763913155E0,1.613360643E0
3.642392854E0,4.922036171E0,9.763314247E0,1.771286964E0
3.644492392E0,4.903491974E0,9.792028427E0,1.966900229E0
3.646590283E0,4.880161762E0,9.759127617E0,2.124826431E0
3.648683606E0,4.847260475E0,9.735198975E0,2.221137524E0
3.650794669E0,4.832903385E0,9.711270332E0,2.302493572E0
3.652894563E0,4.800002098E0,9.677771568E0,2.350948334E0
3.654997581E0,4.761716843E0,9.682557106E0,2.413161755E0
3.657095818E0,4.718646049E0,9.664012909E0,2.451446772E0
3.659194756E0,4.666602135E0,9.673583984E0,2.499303341E0
3.661285962E0,4.609174728E0,9.711869240E0,2.580659151E0
3.663397239E0,4.537988186E0,9.750154495E0,2.666202545E0
3.665497621E0,4.476373196E0,9.779465675E0,2.809772015E0
3.667601239E0,4.410570145E0,9.841679573E0,2.957528830E0
3.669698244E0,4.334598064E0,9.918250084E0,3.129213810E0
3.671796430E0,4.273581028E0,9.990034103E0,3.257827997E0
3.673901309E0,4.225724697E0,1.006181908E1,3.333800077E0
3.676003157E0,4.178466320E0,1.011924744E1,3.352344513E0
3.678101911E0,4.125824451E0,1.016231823E1,3.314059258E0
3.680201917E0,4.067798615E0,1.019103146E1,3.260818958E0
3.682303001E0,4.005585194E0,1.017727280E1,3.223132133E0
3.684403129E0,3.971487284E0,1.013898754E1,3.204587698E0
3.686502312E0,3.952943087E0,1.011027431E1,3.262015581E0
3.688602542E0,3.924229145E0,1.006301594E1,3.367897987E0
3.690705182E0,3.910470486E0,1.003908730E1,3.463610888E0
3.692803825E0,3.896113396E0,1.001037312E1,3.531208038E0
3.694895795E0,3.876971006E0,1.001515961E1,3.535993576E0
3.697006452E0,3.848257065E0,1.002473068E1,3.488137245E0
3.699107425E0,3.819543123E0,1.001515961E1,3.440280676E0
3.701209709E0,3.790230989E0,9.977472305E0,3.388236761E0
3.703309278E0,3.751945972E0,9.934401512E0,3.393620729E0
3.705414208E0,3.728017569E0,9.886545181E0,3.431905985E0
3.707509219E0,3.704089403E0,9.829715729E0,3.518645763E0
3.709610354E0,3.733401537E0,9.814760208E0,3.600001574E0
3.711708509E0,3.762713671E0,9.814760208E0,3.662214994E0
3.713812972E0,3.796213150E0,9.886545181E0,3.723830223E0
3.715919183E0,3.820739508E0,1.002951622E1,3.726821184E0
3.718011977E0,3.835694790E0,1.024905777E1,3.710669756E0
3.720112124E0,3.850051641E0,1.050269699E1,3.660420418E0
3.722211053E0,3.854837179E0,1.073659515E1,3.533600807E0
3.724313277E0,3.898506403E0,1.094178009E1,3.440878868E0
3.726414839E0,3.927220106E0,1.112303638E1,3.386442184E0
3.728514581E0,3.965505362E0,1.122832012E1,3.357130051E0
3.730615350E0,4.013959885E0,1.131386375E1,3.375076294E0
3.732715113E0,4.048057556E0,1.137129116E1,3.460619688E0
3.734815780E0,4.057629108E0,1.145264721E1,3.516851187E0
3.736914230E0,4.063611031E0,1.154776192E1,3.607180119E0
3.739008661E0,4.025325775E0,1.164347458E1,3.668197155E0
3.741118402E0,4.021138668E0,1.173440266E1,3.734597921E0
3.743218754E0,3.993022680E0,1.180140114E1,3.810570002E0
3.745319137E0,3.993621111E0,1.183968639E1,3.910470486E0
3.747415308E0,3.989433527E0,1.186780167E1,4.015156269E0
3.749509424E0,4.023531437E0,1.189173031E1,4.086941242E0
3.751620834E0,4.057629108E0,1.191565895E1,4.182055950E0
3.753721156E0,4.052843571E0,1.193958664E1,4.272983074E0
3.755821487E0,4.072584152E0,1.197308636E1,4.358526230E0
3.757911412E0,4.110869408E0,1.198684502E1,4.377070904E0
3.760020309E0,4.153940201E0,1.197248840E1,4.381856441E0
3.762123611E0,4.206582069E0,1.191027451E1,4.392025948E0
3.764226251E0,4.273581028E0,1.185284710E1,4.363910198E0
3.766325770E0,4.311866283E0,1.180499077E1,4.368695736E0
3.768424891E0,4.350151539E0,1.176670551E1,4.378865242E0
3.770523299E0,4.359723091E0,1.173320580E1,4.378865242E0
3.772615351E0,4.354937077E0,1.174756241E1,4.450650215E0
3.774725754E0,4.331008911E0,1.178106213E1,4.469792843E0
3.776828212E0,4.340580463E0,1.179482079E1,4.440480709E0
3.778929906E0,4.326223373E0,1.181934738E1,4.402195454E0
3.781027399E0,4.331008911E0,1.185703468E1,4.354339123E0
3.783127019E0,4.311866283E0,1.190489101E1,4.305884361E0
3.785236741E0,4.302295208E0,1.197188950E1,4.267001152E0
3.787330226E0,4.287340164E0,1.197188950E1,4.219144344E0
3.789430934E0,4.292125702E0,1.199581814E1,4.166502476E0
3.791529302E0,4.277170658E0,1.201974678E1,4.089931965E0
3.793632716E0,4.258625984E0,1.205803108E1,4.079762459E0
3.795729946E0,4.201198578E0,1.214417267E1,4.064807415E0
3.797822455E0,4.162913322E0,1.226381397E1,4.077968121E0
3.799933019E0,4.101297855E0,1.243609715E1,4.091128349E0
3.802033473E0,4.015754700E0,1.261316681E1,4.085146427E0
3.804134436E0,3.934996843E0,1.279502106E1,4.102494240E0
3.806223863E0,3.848855257E0,1.294337559E1,4.115654945E0
3.808334113E0,3.753142357E0,1.305344582E1,4.105485439E0
3.810436834E0,3.681955814E0,1.312523079E1,4.143172264E0
3.812538804E0,3.648456335E0,1.314915848E1,4.195814610E0
3.814634588E0,3.620340586E0,1.313480186E1,4.238885403E0
3.816726915E0,3.615555048E0,1.314437294E1,4.262813568E0
3.818837856E0,3.610769272E0,1.316351604E1,4.243670940E0
3.820938492E0,3.596412420E0,1.317308712E1,4.205385685E0
3.823041958E0,3.600599766E0,1.314497089E1,4.147958279E0
3.825139003E0,3.619144201E0,1.311147213E1,4.033700943E0
3.827238389E0,3.656831264E0,1.306361485E1,3.938585997E0
3.829341243E0,3.680161238E0,1.303490162E1,3.838087559E0
3.831441891E0,3.684946775E0,1.305404377E1,3.799802303E0
3.833543209E0,3.684946775E0,1.310608768E1,3.784847260E0
3.835642371E0,3.685544968E0,1.314915848E1,3.827319860E0
3.837740536E0,3.705285788E0,1.319222927E1,3.941577196E0
3.839832963E0,3.720241070E0,1.318744373E1,4.061218262E0
3.841944016E0,3.734597921E0,1.314437294E1,4.190430641E0
3.844045295E0,3.749552965E0,1.310130215E1,4.325026989E0
3.846147519E0,3.740580082E0,1.302473164E1,4.402195454E0
3.848244118E0,3.735794306E0,1.295294762E1,4.512863636E0
3.850340247E0,3.750151396E0,1.289073372E1,4.566103935E0
3.852446662E0,3.755535126E0,1.286201954E1,4.623531342E0
3.854547146E0,3.793820381E0,1.281894875E1,4.661816597E0
3.856649228E0,3.798605919E0,1.278544998E1,4.652843475E0
3.858744494E0,3.807579041E0,1.274716473E1,4.639084816E0
3.860832190E0,3.841078520E0,1.268076324E1,4.629513741E0
3.862949561E0,3.855435371E0,1.259462166E1,4.625924587E0
3.865049923E0,3.869194269E0,1.248933792E1,4.612165451E0
3.867155118E0,3.878167391E0,1.236491108E1,4.579862595E0
3.869249397E0,3.854238987E0,1.226022530E1,4.533202648E0
3.871345232E0,3.848855257E0,1.215972614E1,4.496113777E0
3.873451769E0,3.805186272E0,1.208375454E1,4.439284325E0
3.875551145E0,3.771088600E0,1.203589821E1,4.396811485E0
3.877654610E0,3.742374659E0,1.199282742E1,4.373481750E0
3.879753994E0,3.699303865E0,1.197428226E1,4.359723091E0
3.881852526E0,3.637090445E0,1.197906876E1,4.378865242E0
3.883944811E0,3.579662561E0,1.198863983E1,4.374079704E0
3.886055794E0,3.531806231E0,1.201735306E1,4.369294167E0
3.888155800E0,3.488137245E0,1.199402332E1,4.292723656E0
3.890259030E0,3.454039574E0,1.195573807E1,4.135395527E0
3.892354663E0,3.443271875E0,1.192223835E1,3.939782381E0
3.894448698E0,3.403790236E0,1.186062336E1,3.730410576E0
3.896558032E0,3.364906788E0,1.180798149E1,3.544368505E0
3.898658883E0,3.358924866E0,1.176072311E1,3.363112211E0
3.900762408E0,3.339184046E0,1.174158096E1,3.239283562E0
3.902859891E0,3.296113253E0,1.177508068E1,3.186043262E0
3.904960803E0,3.248256683E0,1.182772255E1,3.176471949E0
3.907060779E0,3.205185890E0,1.188993549E1,3.142374277E0
3.909161691E0,3.157329559E0,1.194257736E1,3.123231649E0
3.911262979E0,3.071187973E0,1.198624706E1,3.113062143E0
3.913360441E0,3.004188776E0,1.203410339E1,3.084348440E0
3.915452960E0,2.889333248E0,1.209153080E1,3.102892876E0
3.917563608E0,2.788834810E0,1.214477158E1,3.150749207E0
3.919664101E0,2.698505640E0,1.217348480E1,3.212962627E0
3.921767647E0,2.646461725E0,1.220698452E1,3.298506021E0
3.923865171E0,2.594418049E0,1.219741344E1,3.404388428E0
3.925966226E0,2.527418852E0,1.215494061E1,3.485744476E0
3.928067565E0,2.465205431E0,1.210229874E1,3.567698479E0
3.930166807E0,2.422732830E0,1.204068375E1,3.635295868E0
3.932267363E0,2.398804665E0,1.197846985E1,3.702893019E0
3.934367278E0,2.355733871E0,1.192642593E1,3.775275946E0
3.936465911E0,2.308475733E0,1.188814068E1,3.866801500E0
3.938563781E0,2.251047850E0,1.186421299E1,3.967299938E0
3.940669747E0,2.218146563E0,1.187378407E1,4.053441525E0
3.942770741E0,2.146960020E0,1.190309620E1,4.158725739E0
3.944873056E0,2.085345030E0,1.190788174E1,4.287938118E0
3.946971232E0,2.038086653E0,1.190788174E1,4.455435753E0
3.949071899E0,1.986641049E0,1.191745281E1,4.666004181E0
3.951172342E0,1.953739643E0,1.189890862E1,4.843072891E0
3.953272918E0,1.911267042E0,1.187498093E1,5.005784988E0
3.955373433E0,1.859223247E0,1.186062336E1,5.158925533E0
3.957474131E0,1.816750646E0,1.183669567E1,5.260022163E0
3.959574970E0,1.744965911E0,1.182293701E1,5.336592674E0
3.961676737E0,1.716850281E0,1.181815147E1,5.389235020E0
3.963775624E0,1.692323804E0,1.180379391E1,5.380261898E0
3.965876922E0,1.682752490E0,1.179422283E1,5.318048477E0
3.967977753E0,1.701296926E0,1.177986622E1,5.184050083E0
3.970074838E0,1.710269928E0,1.176550865E1,5.026721954E0
3.972168020E0,1.761715651E0,1.173200989E1,4.801796913E0
3.974278137E0,1.817947030E0,1.166501045E1,4.597210407E0
3.976379629E0,1.878963947E0,1.161715412E1,4.434498787E0
3.978483033E0,1.897508383E0,1.161236858E1,4.248456478E0
3.980581939E0,1.872981906E0,1.166501045E1,4.123431683E0
3.982685475E0,1.801197290E0,1.172722340E1,4.085146427E0
3.984779978E0,1.763510346E0,1.183250809E1,4.141377926E0
3.986881552E0,1.677966833E0,1.192822075E1,4.274777889E0
3.988980937E0,1.578664780E0,1.200957680E1,4.484747887E0
3.991083028E0,1.488933921E0,1.209093285E1,4.708476543E0
3.993183746E0,1.408774376E0,1.214895916E1,4.951946259E0
3.995285360E0,1.323829174E0,1.218724346E1,5.167300701E0
3.997384319E0,1.252642632E0,1.223031521E1,5.310271740E0
3.999484873E0,1.205982566E0,1.228295708E1,5.453242779E0
4.001585134E0,1.148554921E0,1.233559895E1,5.534598827E0
4.003686148E0,1.096511006E0,1.238345528E1,5.596213818E0
4.005784435E0,1.063011408E0,1.242233849E1,5.562714577E0
4.007874797E0,1.063011408E0,1.244566917E1,5.552545071E0
4.009978220E0,1.043868899E0,1.249831104E1,5.509474277E0
4.012089681E0,1.062413216E0,1.253181076E1,5.446662426E0
4.014194082E0,1.086341500E0,1.254138184E1,5.398806095E0
4.016300447E0,1.119840980E0,1.256052399E1,5.327021599E0
4.018379660E0,1.114457130E0,1.259402370E1,5.240281582E0
4.020489075E0,1.100100160E0,1.261316681E1,5.168497086E0
4.022578370E0,1.066002488E0,1.263230896E1,5.120640278E0
4.024684297E0,1.056431174E0,1.265623760E1,5.082355499E0
4.026791189E0,9.846464992E-1,1.267059422E1,5.096712112E0
4.028895886E0,9.373882413E-1,1.266640663E1,5.168497086E0
4.030995993E0,8.656035662E-1,1.266162109E1,5.264209747E0
4.033094219E0,7.710871100E-1,1.267597771E1,5.412564754E0
4.035196371E0,6.759724021E-1,1.267179012E1,5.570491314E0
4.037300325E0,5.712863803E-1,1.268136215E1,5.685945034E0
4.039395621E0,4.612165689E-1,1.270588779E1,5.781657696E0
4.041495963E0,3.613162339E-1,1.274895859E1,5.814558983E0
4.043595227E0,3.086741269E-1,1.273519993E1,5.810371399E0
4.045697928E0,2.745763958E-1,1.271605778E1,5.791228771E0
4.047800285E0,2.697907388E-1,1.269212914E1,5.772684574E0
4.049909639E0,2.596212626E-1,1.267777252E1,5.700900078E0
4.051998750E0,2.835494876E-1,1.268255806E1,5.629115105E0
4.054099153E0,2.685943544E-1,1.270648670E1,5.547759533E0
4.056196962E0,2.297109663E-1,1.271605778E1,5.408975601E0
4.058296979E0,1.770688742E-1,1.274536991E1,5.298905849E0
4.060386863E0,1.286142170E-1,1.274536991E1,5.203192711E0
4.062502626E0,9.032905847E-2,1.275972652E1,5.184050083E0
4.064601513E0,6.161518395E-2,1.276929760E1,5.207978249E0
4.066704501E0,1.375873014E-2,1.277886963E1,5.284548759E0
4.068798923E0,-4.785645287E-3,1.276989651E1,5.346762180E0
4.070893516E0,-5.264209956E-2,1.274596786E1,5.409573555E0
4.073004987E0,-5.682953820E-2,1.271725368E1,5.471786976E0
4.075105186E0,-1.046859920E-1,1.271725368E1,5.557928562E0
4.077208620E0,-1.142572835E-1,1.268854046E1,5.601597786E0
4.079306571E0,-1.136590764E-1,1.266939735E1,5.668596745E0
4.081406344E0,-1.328016520E-1,1.266461182E1,5.697310925E0
4.083506981E0,-1.280160099E-1,1.267896938E1,5.735595703E0
4.085607618E0,-1.232303679E-1,1.272204018E1,5.706283569E0
4.087707950E0,-1.471585929E-1,1.274118233E1,5.653641701E0
4.089808464E0,-1.573280841E-1,1.275075340E1,5.567500114E0
4.091907636E0,-1.860419661E-1,1.277946758E1,5.476572990E0
4.094004621E0,-2.344966233E-1,1.275613785E1,5.371886730E0
4.096111595E0,-2.733799815E-1,1.275613785E1,5.319244862E0
4.098210656E0,-3.260220885E-1,1.276570892E1,5.271388054E0
4.100312757E0,-3.786641955E-1,1.274716473E1,5.281557560E0
4.102410495E0,-4.408775866E-1,1.275195026E1,5.353342533E0
4.104504845E0,-5.168496966E-1,1.275195026E1,5.458626747E0
4.106613121E0,-6.167500615E-1,1.275733376E1,5.587839127E0
4.108713189E0,-7.214360237E-1,1.277647686E1,5.726622581E0
4.110816145E0,-8.213363886E-1,1.278664589E1,5.836692810E0
4.112913283E0,-9.355936646E-1,1.280100250E1,5.937191010E0
4.115004836E0,-1.006780148E0,1.281595802E1,6.037689686E0
4.117115991E0,-1.088136077E0,1.281595802E1,6.095117569E0
4.119215214E0,-1.155135155E0,1.280219936E1,6.110072613E0
4.121317183E0,-1.207777262E0,1.277827072E1,6.115456581E0
4.123416823E0,-1.256231904E0,1.276391411E1,6.048457623E0
4.125513869E0,-1.309472203E0,1.274058437E1,5.967699528E0
4.127608514E0,-1.362114310E0,1.270708466E1,5.906084538E0
4.129718733E0,-1.405783296E0,1.265982628E1,5.834897995E0
4.131820356E0,-1.459023595E0,1.262632656E1,5.778068542E0
4.133922896E0,-1.502094388E0,1.258325577E1,5.730810165E0
4.136023462E0,-1.564906001E0,1.255035496E1,5.668596745E0
4.138132339E0,-1.632503271E0,1.251206970E1,5.606981754E0
4.140221989E0,-1.704287887E0,1.246481133E1,5.598606586E0
4.142322138E0,-1.776072621E0,1.243131161E1,5.598606586E0
4.144420109E0,-1.871785522E0,1.238405323E1,5.637490273E0
4.146522089E0,-1.943570137E0,1.229372501E1,5.700900078E0
4.148614984E0,-2.048854351E0,1.219861031E1,5.764309883E0
4.150724898E0,-2.134995937E0,1.209811115E1,5.861218929E0
4.152824599E0,-2.254637241E0,1.198385429E1,5.943771362E0
4.154927658E0,-2.378465652E0,1.190309620E1,6.031109333E0
4.157025894E0,-2.550748825E0,1.181336498E1,6.104090691E0
4.159127172E0,-2.737389088E0,1.170867920E1,6.177071571E0
4.161227939E0,-2.909672260E0,1.160399342E1,6.273981094E0
4.163328638E0,-3.048455954E0,1.148495007E1,6.337988853E0
4.165427973E0,-3.192623615E0,1.134736347E1,6.396613121E0
4.167528854E0,-3.350549936E0,1.121396351E1,6.422336102E0
4.169627455E0,-3.489931822E0,1.107577801E1,6.414559364E0
4.171719711E0,-3.600599766E0,1.095194912E1,6.372684956E0
4.173828394E0,-3.653241873E0,1.088554859E1,6.340381622E0
4.175920578E0,-3.720839262E0,1.083290672E1,6.278766632E0
4.178034216E0,-3.763910055E0,1.080897808E1,6.284150600E0
4.180134434E0,-3.787838221E0,1.082393360E1,6.278766632E0
4.182241419E0,-3.802195072E0,1.083350468E1,6.240481377E0
4.184333410E0,-3.807579041E0,1.084307575E1,6.197410583E0
4.186433518E0,-3.802793503E0,1.085264683E1,6.106483459E0
4.188532547E0,-3.822534084E0,1.082393360E1,6.030511379E0
4.190634750E0,-3.856631994E0,1.080479050E1,5.988038540E0
4.192735366E0,-3.885345697E0,1.077129078E1,5.992824078E0
4.194834579E0,-3.927818298E0,1.074796104E1,6.055635929E0
4.196935837E0,-3.961317778E0,1.073360443E1,6.156134605E0
4.199035559E0,-3.960719585E0,1.072881889E1,6.275775433E0
4.201137863E0,-3.979264021E0,1.073360443E1,6.371488571E0
4.203236008E0,-3.983451605E0,1.073838997E1,6.457031727E0
4.205328650E0,-3.988237143E0,1.074317551E1,6.509674072E0
4.207439214E0,-3.954139471E0,1.075753212E1,6.571887493E0
4.209539576E0,-3.911068678E0,1.077607632E1,6.585646152E0
4.211643072E0,-3.848855257E0,1.083350468E1,6.565905571E0
4.213738541E0,-3.820739508E0,1.085743237E1,6.412764549E0
4.215827745E0,-3.783650875E0,1.087597752E1,6.187839508E0
4.217942206E0,-3.784847260E0,1.085743237E1,5.910272121E0
4.220042181E0,-3.814757586E0,1.078086281E1,5.662614822E0
4.222146745E0,-3.868596077E0,1.068574810E1,5.443671703E0
4.224241542E0,-3.966103554E0,1.055234814E1,5.225326538E0
4.226336707E0,-4.062414646E0,1.042373371E1,5.078765869E0
4.228445034E0,-4.192823410E0,1.024726295E1,4.956133842E0
4.230546575E0,-4.323232174E0,1.004686451E1,4.901099205E0
4.232647151E0,-4.476971149E0,9.875777245E0,4.869992256E0
4.234745021E0,-4.616353035E0,9.689735413E0,4.852644444E0
4.236847540E0,-4.765306473E0,9.475577354E0,4.831109047E0
4.238948015E0,-4.909473896E0,9.313464165E0,4.808975220E0
4.241048794E0,-5.010570526E0,9.156135559E0,4.801198483E0
4.243148139E0,-5.126024246E0,9.041878700E0,4.712066174E0
4.245249101E0,-5.227120876E0,8.956335068E0,4.631906509E0
4.247347897E0,-5.309075356E0,8.880363464E0,4.541577339E0
4.249439958E0,-5.381458282E0,8.822935104E0,4.480560303E0
4.251550666E0,-5.429314613E0,8.785248756E0,4.438087940E0
4.253650459E0,-5.434698582E0,8.756534576E0,4.385445595E0
4.255752957E0,-5.391627789E0,8.751749039E0,4.380660057E0
4.257851946E0,-5.353342533E0,8.784649849E0,4.370490551E0
4.259949988E0,-5.271388054E0,8.822935104E0,4.398606300E0
4.262054216E0,-5.170889854E0,8.898907661E0,4.436293125E0
4.264154772E0,-5.069792747E0,8.960522652E0,4.502095699E0
4.266255246E0,-4.963910580E0,9.046066284E0,4.553541660E0
4.268352933E0,-4.834099770E0,9.141180992E0,4.585844517E0
4.270445289E0,-4.733601570E0,9.222537041E0,4.594219685E0
4.272556719E0,-4.599005222E0,9.317052841E0,4.607379913E0
4.274656583E0,-4.435695171E0,9.416953087E0,4.634897232E0
4.276760160E0,-4.277768612E0,9.502496719E0,4.662415028E0
4.278857734E0,-4.147958279E0,9.602396965E0,4.699503899E0
4.280956672E0,-4.013361931E0,9.687940598E0,4.736592293E0
4.283046120E0,-3.873979807E0,9.768698692E0,4.788038254E0
4.285149859E0,-3.768097401E0,9.815957069E0,4.849055290E0
4.287259631E0,-3.648456335E0,9.877572060E0,4.915455818E0
4.289362953E0,-3.552145243E0,9.896714211E0,4.962714195E0
4.291460883E0,-3.461217880E0,9.881759644E0,4.977071285E0
4.293551989E0,-3.351148129E0,9.857831001E0,4.957928658E0
4.295662849E0,-3.284747362E0,9.823733330E0,4.890929699E0
4.297763832E0,-3.227319479E0,9.780662537E0,4.809573650E0
4.299865689E0,-3.218346357E0,9.694520950E0,4.767699242E0
4.301964476E0,-3.228515863E0,9.594620705E0,4.687539577E0
4.304065509E0,-3.257827997E0,9.489336014E0,4.625924587E0
4.306165078E0,-3.296711445E0,9.360722542E0,4.565505505E0
4.308265237E0,-3.330809116E0,9.227322578E0,4.514060020E0
4.310365609E0,-3.364906788E0,9.069396019E0,4.506283283E0
4.312467059E0,-3.455834150E0,8.888139725E0,4.532006264E0
4.314568215E0,-3.524029493E0,8.697312355E0,4.471587181E0
4.316668333E0,-3.625126362E0,8.516654015E0,4.421338081E0
4.318767973E0,-3.726821184E0,8.311469078E0,4.289134502E0
4.320868427E0,-3.818944931E0,8.154141426E0,4.133601189E0
4.322969145E0,-3.911068678E0,7.982456207E0,3.948755503E0
4.325066293E0,-3.998406649E0,7.829914093E0,3.754338741E0
4.327161599E0,-4.114458561E0,7.701299667E0,3.569493294E0
4.329269815E0,-4.182653904E0,7.577471256E0,3.388834953E0
4.331373198E0,-4.255635262E0,7.434499741E0,3.247060299E0
4.333473997E0,-4.295116425E0,7.286743164E0,3.105285645E0
4.335572438E0,-4.334598064E0,7.152745247E0,2.962912560E0
4.337670928E0,-4.354339123E0,7.033702374E0,2.797209740E0
4.339774098E0,-4.341178417E0,6.966702938E0,2.611167669E0
4.341874093E0,-4.294518471E0,6.899703979E0,2.458625317E0
4.343975066E0,-4.241876125E0,6.885347366E0,2.348555326E0
4.346075357E0,-4.175475597E0,6.884748936E0,2.281556368E0
4.348174245E0,-4.094119549E0,6.937391281E0,2.266601324E0
4.350266173E0,-3.969094515E0,7.013363361E0,2.279761791E0
4.352376901E0,-3.824927092E0,7.146762848E0,2.301895380E0
4.354477152E0,-3.613760471E0,7.289135933E0,2.367099762E0
4.356580505E0,-3.406781197E0,7.479365349E0,2.465205431E0
4.358678721E0,-3.190230846E0,7.703094482E0,2.605783939E0
4.360779824E0,-2.983251572E0,7.902894974E0,2.732603550E0
4.362879883E0,-2.796013355E0,8.098507881E0,2.801995277E0
4.364981181E0,-2.618346214E0,8.197810173E0,2.815155745E0
4.367080638E0,-2.455035925E0,8.307282448E0,2.842075109E0
4.369178579E0,-2.316252232E0,8.368897438E0,2.822334290E0
4.371269581E0,-2.186441660E0,8.420941353E0,2.878565550E0
4.373378611E0,-2.047059774E0,8.439485550E0,2.949752092E0
4.375493255E0,-1.956132531E0,8.449056625E0,3.044866800E0
4.377586537E0,-1.893320918E0,8.429914474E0,3.159722328E0
4.379684621E0,-1.873580098E0,8.395816803E0,3.293720484E0
4.381778310E0,-1.872981906E0,8.372486115E0,3.413361549E0
4.383884989E0,-1.901097536E0,8.329415321E0,3.557528973E0
4.385984294E0,-1.943570137E0,8.281558990E0,3.682554007E0
4.388085897E0,-2.010569334E0,8.243872643E0,3.797409534E0
4.390187826E0,-2.062613010E0,8.181658745E0,3.912863255E0
4.392291555E0,-2.158325911E0,8.120043755E0,3.971487284E0
4.394388652E0,-2.249253273E0,8.038687706E0,4.005585194E0
4.396488556E0,-2.335394859E0,7.943572998E0,4.025924206E0
4.398588928E0,-2.407777786E0,7.805387497E0,3.979862213E0
4.400689270E0,-2.475374937E0,7.657630444E0,3.937987804E0
4.402787079E0,-2.524427891E0,7.485945702E0,3.858426571E0
4.404878652E0,-2.587239504E0,7.338188648E0,3.759722471E0
4.406991110E0,-2.631506681E0,7.170691490E0,3.670589924E0
4.409091584E0,-2.689532757E0,7.046862602E0,3.514458179E0
4.411195364E0,-2.709871531E0,6.913462639E0,3.333800077E0
4.413296458E0,-2.763710260E0,6.794419765E0,3.139383316E0
4.415406363E0,-2.784647465E0,6.669992924E0,2.930011272E0
4.417493836E0,-2.804986238E0,6.555736065E0,2.687139750E0
