"Time (s)","Gyroscope x (rad/s)","Gyroscope y (rad/s)","Gyroscope z (rad/s)"
2.315842300E-2,-4.280638099E-1,7.040221691E-1,-8.384125680E-2
2.524778500E-2,-4.647157490E-1,7.490735054E-1,-1.029307917E-1
2.734581800E-2,-4.975497425E-1,7.965682745E-1,-1.232420653E-1
2.944524300E-2,-5.280929804E-1,8.463537693E-1,-1.398881376E-1
3.154575800E-2,-5.574145317E-1,8.998045325E-1,-1.589776874E-1
3.363941700E-2,-5.818491578E-1,9.532552361E-1,-1.744020283E-1
3.574680900E-2,-6.024658680E-1,1.011592865E0,-1.886046380E-1
3.784747700E-2,-6.207917929E-1,1.072373986E0,-2.003637999E-1
3.995099100E-2,-6.366742849E-1,1.140332699E0,-2.073887438E-1
4.204783400E-2,-6.499606371E-1,1.210734963E0,-2.105957866E-1
4.414125900E-2,-6.560692787E-1,1.279915452E0,-2.151772827E-1
4.625308600E-2,-6.597344875E-1,1.340543747E0,-2.185370475E-1
4.835177000E-2,-6.620252132E-1,1.392772794E0,-2.231185287E-1
5.045498900E-2,-6.620252132E-1,1.436449647E0,-2.229658216E-1
5.255248300E-2,-6.571382880E-1,1.449888706E0,-2.229658216E-1
5.465100500E-2,-6.426302195E-1,1.413389444E0,-2.196060568E-1
5.674420500E-2,-6.195700765E-1,1.333366156E0,-2.176207453E-1
5.885485200E-2,-5.952881575E-1,1.256855249E0,-2.145664245E-1
6.095532600E-2,-5.685628057E-1,1.198517561E0,-2.125810981E-1
6.305924800E-2,-5.369505286E-1,1.158505917E0,-2.069306076E-1
6.515896000E-2,-5.041165352E-1,1.123228431E0,-1.988366395E-1
6.726820300E-2,-4.676173329E-1,1.096350431E0,-1.882992089E-1
6.935829000E-2,-4.309654236E-1,1.076955438E0,-1.751656085E-1
7.145782900E-2,-3.956879675E-1,1.059851170E0,-1.634064466E-1
7.355557600E-2,-3.627012372E-1,1.051299095E0,-1.527163088E-1
7.565872700E-2,-3.347541690E-1,1.043968678E0,-1.432479024E-1
7.776023800E-2,-3.127630055E-1,1.045037746E0,-1.360702366E-1
7.986143400E-2,-2.933680415E-1,1.054811597E0,-1.337794960E-1
8.196060600E-2,-2.750420868E-1,1.076650023E0,-1.325577646E-1
8.406107000E-2,-2.567161322E-1,1.099557400E0,-1.290452778E-1
8.616167600E-2,-2.383901626E-1,1.132391453E0,-1.229366288E-1
8.825963800E-2,-2.200642079E-1,1.177137375E0,-1.131627858E-1
9.035266500E-2,-1.992947906E-1,1.230435371E0,-1.009454802E-1
9.246330200E-2,-1.783726513E-1,1.291063666E0,-8.002334833E-2
9.456433500E-2,-1.598939747E-1,1.369712591E0,-4.688390717E-2
9.666639700E-2,-1.437060535E-1,1.450957656E0,-7.635815535E-3
9.876131700E-2,-1.299615800E-1,1.522428870E0,2.916881628E-2
1.008559720E-1,-1.149953827E-1,1.575574160E0,6.597344577E-2
1.029666180E-1,-1.024726480E-1,1.615433097E0,1.038470939E-1
1.050674290E-1,-9.254608303E-2,1.639562368E0,1.394299865E-1
1.071695710E-1,-8.246681094E-2,1.649183393E0,1.722639948E-1
1.092706960E-1,-7.009678334E-2,1.649030685E0,2.015855312E-1
1.113803760E-1,-6.017022580E-2,1.639256835E0,2.283108830E-1
1.134704430E-1,-5.024366826E-2,1.622152686E0,2.513710558E-1
1.155694120E-1,-3.802636266E-2,1.596649051E0,2.693915665E-1
1.176670280E-1,-1.954768784E-2,1.569770932E0,2.863430977E-1
1.197702270E-1,1.221730490E-3,1.544267297E0,2.982549667E-1
1.218715570E-1,2.672535367E-2,1.517542005E0,3.065016270E-1
1.239719500E-1,5.345070735E-2,1.489594936E0,3.097086847E-1
1.260720780E-1,8.628471941E-2,1.462869525E0,3.130684495E-1
1.281728670E-1,1.227839142E-1,1.433700681E0,3.126102984E-1
1.302742360E-1,1.591303945E-1,1.403310180E0,3.133738637E-1
1.323721470E-1,1.992947906E-1,1.366811037E0,3.115412891E-1
1.344655000E-1,2.344195396E-1,1.325577617E0,3.123048544E-1
1.365756590E-1,2.696970105E-1,1.278235555E0,3.094032407E-1
1.386752990E-1,3.084869385E-1,1.229671717E0,3.112358451E-1
1.407783570E-1,3.413209617E-1,1.176221013E0,3.132211566E-1
1.428753820E-1,3.717114925E-1,1.120326877E0,3.176499307E-1
1.449739030E-1,4.008803070E-1,1.058476806E0,3.243694305E-1
1.470769910E-1,4.253149331E-1,9.928087592E-1,3.361285925E-1
1.491703140E-1,4.495968223E-1,9.260717034E-1,3.478877544E-1
1.512796480E-1,4.691445231E-1,8.591819406E-1,3.645338416E-1
1.533764810E-1,4.825835526E-1,7.912232280E-1,3.824016452E-1
1.554723160E-1,4.937318265E-1,7.328855991E-1,4.028656185E-1
1.575813150E-1,5.022839308E-1,6.780604124E-1,4.269948006E-1
1.596815030E-1,5.073235631E-1,6.294966340E-1,4.524984360E-1
1.617841760E-1,5.125159621E-1,5.978843570E-1,4.790710807E-1
1.638825240E-1,5.126686692E-1,5.722280145E-1,5.035057068E-1
1.659809530E-1,5.103778839E-1,5.528330207E-1,5.265658498E-1
1.680820480E-1,5.080871582E-1,5.453499556E-1,5.497786999E-1
1.701836600E-1,5.070181489E-1,5.453499556E-1,5.681046844E-1
1.722846240E-1,5.022839308E-1,5.464189649E-1,5.853615999E-1
1.743825550E-1,4.963280261E-1,5.513058901E-1,5.975789428E-1
1.764726730E-1,4.964807332E-1,5.572618246E-1,6.073527932E-1
1.785764440E-1,4.977024496E-1,5.633704662E-1,6.123924255E-1
1.806875470E-1,5.013676286E-1,5.621487498E-1,6.110179424E-1
1.827896590E-1,5.038111210E-1,5.549710989E-1,6.061310172E-1
1.848905610E-1,5.061018467E-1,5.439754725E-1,6.012440920E-1
1.869854500E-1,5.108360648E-1,5.258022547E-1,5.900958180E-1
1.890769830E-1,5.241223574E-1,5.027421117E-1,5.787948370E-1
1.911893480E-1,5.386304259E-1,4.773911834E-1,5.639813542E-1
1.932896080E-1,5.590944290E-1,4.506658316E-1,5.477933884E-1
1.953910490E-1,5.820018649E-1,4.240931869E-1,5.279402733E-1
1.974836090E-1,6.085745096E-1,4.010330439E-1,5.007568002E-1
1.995991990E-1,6.374378800E-1,3.756821156E-1,4.685336351E-1
2.016915150E-1,6.724098921E-1,3.503312171E-1,4.338670373E-1
2.037922330E-1,7.084509730E-1,3.213151097E-1,3.943135142E-1
2.058914060E-1,7.481572032E-1,2.898555696E-1,3.547599912E-1
2.079937620E-1,7.916813493E-1,2.583959997E-1,3.139847219E-1
2.100928920E-1,8.374962807E-1,2.234239578E-1,2.718350291E-1
2.121848630E-1,8.807149529E-1,1.809688359E-1,2.272418737E-1
2.142967810E-1,9.253081083E-1,1.398881376E-1,1.850921661E-1
2.163956280E-1,9.699012637E-1,9.758572280E-2,1.430951804E-1
2.184989910E-1,1.014647126E0,5.757404864E-2,1.033889428E-1
2.205924860E-1,1.056796908E0,2.122756653E-2,6.612616032E-2
2.226807840E-1,1.096503139E0,-1.496619824E-2,2.901609987E-2
2.247965980E-1,1.132696867E0,-4.886921868E-2,-5.650503561E-3
2.268970110E-1,1.164003730E0,-8.399397135E-2,-3.665191308E-2
2.290023580E-1,1.190576315E0,-1.178969890E-1,-6.383541971E-2
2.311011530E-1,1.215927243E0,-1.469130963E-1,-8.628471941E-2
2.332010980E-1,1.235169530E0,-1.675297916E-1,-1.036943719E-1
2.353014100E-1,1.254411817E0,-1.881465018E-1,-1.185078546E-1
2.374011420E-1,1.265254617E0,-2.050980031E-1,-1.308778822E-1
2.395020930E-1,1.278540969E0,-2.171625942E-1,-1.432479024E-1
2.416041040E-1,1.283275127E0,-2.316706479E-1,-1.495092660E-1
2.437094610E-1,1.286940336E0,-2.438879460E-1,-1.557706445E-1
2.458041060E-1,1.288162112E0,-2.547308207E-1,-1.569923609E-1
2.479050690E-1,1.283275127E0,-2.620611787E-1,-1.557706445E-1
2.500031920E-1,1.282053471E0,-2.657263875E-1,-1.569923609E-1
2.521053140E-1,1.277166486E0,-2.693915665E-1,-1.533271819E-1
2.542030310E-1,1.269988894E0,-2.716823220E-1,-1.495092660E-1
2.562963750E-1,1.266323686E0,-2.706133127E-1,-1.446223408E-1
2.584072560E-1,1.262811184E0,-2.681698501E-1,-1.372919679E-1
2.605073220E-1,1.257924199E0,-2.645046413E-1,-1.324050426E-1
2.626105640E-1,1.254411817E0,-2.573269904E-1,-1.261436790E-1
2.647087290E-1,1.249524832E0,-2.475531399E-1,-1.212567538E-1
2.668084810E-1,1.244790673E0,-2.354885489E-1,-1.162171140E-1
2.689105930E-1,1.239903688E0,-2.185370475E-1,-1.111774743E-1
2.710110260E-1,1.232726097E0,-2.026545405E-1,-1.085812971E-1
2.731108690E-1,1.222952247E0,-1.832595766E-1,-1.084285825E-1
2.752085570E-1,1.214400053E0,-1.650863290E-1,-1.082758680E-1
2.773017780E-1,1.202335477E0,-1.456913650E-1,-1.105666086E-1
2.794128190E-1,1.188896537E0,-1.261436790E-1,-1.153008118E-1
2.815138940E-1,1.176679134E0,-1.055269688E-1,-1.211040318E-1
2.836156500E-1,1.159574986E0,-8.246681094E-2,-1.319468915E-1
2.857127470E-1,1.142470717E0,-6.047565863E-2,-1.438587606E-1
2.878131910E-1,1.127810001E0,-3.619376570E-2,-1.620320082E-1
2.899155460E-1,1.114218235E0,-1.420261711E-2,-1.849394590E-1
2.920158580E-1,1.096961260E0,4.123340361E-3,-2.128865421E-1
2.941165460E-1,1.080926061E0,2.367102914E-2,-2.457205504E-1
2.962171220E-1,1.068556070E0,4.077525437E-2,-2.832887471E-1
2.983157860E-1,1.054811597E0,5.787948146E-2,-3.246748745E-1
3.004076630E-1,1.042288780E0,7.513642311E-2,-3.697261810E-1
3.025185130E-1,1.033431292E0,9.224065393E-2,-4.159992337E-1
3.046193330E-1,1.025795460E0,1.082758680E-1,-4.610505402E-1
3.067226670E-1,1.016937971E0,1.253800988E-1,-5.061018467E-1
3.088177190E-1,1.010523796E0,1.365283877E-1,-5.464189649E-1
3.109111830E-1,1.001666307E0,1.499674171E-1,-5.816964507E-1
3.130217180E-1,9.954048991E-1,1.586722434E-1,-6.133087277E-1
3.151226910E-1,9.867000580E-1,1.708895564E-1,-6.389650702E-1
3.172246100E-1,9.718865752E-1,1.794416606E-1,-6.595817208E-1
3.193254790E-1,9.584475756E-1,1.867720485E-1,-6.765332818E-1
3.214345590E-1,9.460775256E-1,1.977676302E-1,-6.910412908E-1
3.235244650E-1,9.289733171E-1,2.124283910E-1,-7.041749358E-1
3.256245020E-1,9.106473923E-1,2.269364446E-1,-7.125743032E-1
3.277223720E-1,8.888089061E-1,2.464841306E-1,-7.159340382E-1
3.298257130E-1,8.669704795E-1,2.658790946E-1,-7.217372656E-1
3.319247020E-1,8.462010622E-1,2.878702581E-1,-7.250970602E-1
3.340165410E-1,8.219192028E-1,3.109304011E-1,-7.272350788E-1
3.361275140E-1,7.964155674E-1,3.339905739E-1,-7.220427394E-1
3.382285470E-1,7.722864151E-1,3.533855379E-1,-7.168503404E-1
3.403308620E-1,7.516697049E-1,3.740022480E-1,-7.079927921E-1
3.424275100E-1,7.310529947E-1,3.921754956E-1,-6.956228018E-1
3.445239060E-1,7.118107080E-1,4.103487432E-1,-6.794348955E-1
3.466304630E-1,6.950119138E-1,4.295909703E-1,-6.572909951E-1
3.487314970E-1,6.818783283E-1,4.502076805E-1,-6.301075220E-1
3.508324480E-1,6.748533845E-1,4.670064747E-1,-6.006332636E-1
3.529317130E-1,6.702718735E-1,4.815145433E-1,-5.700899959E-1
3.550308130E-1,6.679811478E-1,4.935791194E-1,-5.369505286E-1
3.571312670E-1,6.707300544E-1,5.030475259E-1,-5.027421117E-1
3.592319550E-1,6.783658266E-1,5.006040931E-1,-4.673119187E-1
3.613340770E-1,6.847799420E-1,4.857905805E-1,-4.295909703E-1
3.634370840E-1,6.936374903E-1,4.674646258E-1,-3.894265890E-1
3.655425230E-1,7.072292566E-1,4.393648207E-1,-3.518583775E-1
3.676229270E-1,7.220427394E-1,4.053090811E-1,-3.178026378E-1
3.697262990E-1,7.405213714E-1,3.688098788E-1,-2.826778889E-1
3.718342910E-1,7.602217793E-1,3.309362531E-1,-2.487748712E-1
3.739397290E-1,7.823656797E-1,2.956587672E-1,-2.174680233E-1
3.760376500E-1,8.081747293E-1,2.567161322E-1,-1.860084683E-1
3.781280740E-1,8.326093554E-1,2.189951837E-1,-1.595885456E-1
3.802390250E-1,8.620835543E-1,1.763873398E-1,-1.317941695E-1
3.823403430E-1,8.901833892E-1,1.398881376E-1,-1.090394482E-1
3.844425470E-1,9.182831645E-1,1.044579595E-1,-8.872817457E-2
3.865408340E-1,9.451612234E-1,7.528914511E-2,-6.826419383E-2
3.886408200E-1,9.695958495E-1,5.100724846E-2,-5.268712714E-2
3.907417820E-1,9.963212013E-1,2.901609987E-2,-3.955352306E-2
3.928420730E-1,1.019534111E0,9.621127509E-3,-3.130684420E-2
3.949430760E-1,1.037707329E0,-6.261368748E-3,-2.657263726E-2
3.970434090E-1,1.053589821E0,-2.321287990E-2,-2.687807009E-2
3.991451240E-1,1.065654397E0,-3.787364438E-2,-3.069597855E-2
4.012446410E-1,1.076497316E0,-5.115996301E-2,-3.940080851E-2
4.033457050E-1,1.086118460E0,-5.955936015E-2,-5.177082866E-2
4.054460980E-1,1.092074394E0,-6.444628537E-2,-7.009678334E-2
4.075458400E-1,1.099251986E0,-6.673702598E-2,-8.979719132E-2
4.096438110E-1,1.103833556E0,-6.673702598E-2,-1.130100712E-1
4.117367570E-1,1.103680730E0,-6.658431143E-2,-1.411098689E-1
4.138480960E-1,1.103375316E0,-6.520986557E-2,-1.667662114E-1
4.159475230E-1,1.099557400E0,-6.520986557E-2,-1.924225539E-1
4.180499700E-1,1.095739484E0,-6.261368841E-2,-2.156354338E-1
4.201500470E-1,1.091921568E0,-5.650503561E-2,-2.338086665E-1
4.222530340E-1,1.084591269E0,-4.917465150E-2,-2.472477108E-1
4.243512090E-1,1.073595643E0,-3.940080851E-2,-2.519819140E-1
4.264508180E-1,1.061531067E0,-2.611448988E-2,-2.481640130E-1
4.285507030E-1,1.043357849E0,-1.282817032E-2,-2.344195396E-1
4.306496200E-1,1.020450354E0,1.679879380E-3,-2.134974003E-1
4.327435030E-1,9.915869832E-1,2.229658142E-2,-1.849394590E-1
4.348534780E-1,9.566149712E-1,4.046982154E-2,-1.516472995E-1
4.369554580E-1,9.143125415E-1,6.582073122E-2,-1.229366288E-1
4.390620970E-1,8.744536042E-1,9.117163718E-2,-8.704829961E-2
4.411549400E-1,8.335255980E-1,1.117883399E-1,-4.627304152E-2
4.432553230E-1,7.913759351E-1,1.188132912E-1,-3.207042580E-3
4.453549530E-1,7.490735054E-1,1.127046347E-1,4.245513305E-2
4.474566990E-1,7.105889916E-1,9.315694869E-2,8.918632567E-2
4.495583930E-1,6.745479703E-1,6.017022580E-2,1.382082552E-1
4.516573210E-1,6.433938146E-1,2.000583708E-2,1.908953935E-1
4.537554860E-1,6.194173694E-1,-3.481931984E-2,2.458732575E-1
4.558480360E-1,6.064364910E-1,-1.017090604E-1,2.994766831E-1
4.579591400E-1,6.032294035E-1,-1.771509200E-1,3.578143120E-1
4.600596950E-1,6.036875844E-1,-2.658790946E-1,4.112650156E-1
4.621627130E-1,6.137668490E-1,-3.631593883E-1,4.619668424E-1
4.642572770E-1,6.334672570E-1,-4.677700698E-1,5.115996599E-1
4.663475380E-1,6.592763066E-1,-5.734497309E-1,5.584835410E-1
4.684625180E-1,6.838636398E-1,-6.817256212E-1,6.030766964E-1
4.705626970E-1,7.049384713E-1,-7.802276611E-1,6.464481354E-1
4.726677490E-1,7.232644558E-1,-8.665123582E-1,6.814202070E-1
4.747645510E-1,7.441865802E-1,-9.381362796E-1,7.053966522E-1
4.768646590E-1,7.637342811E-1,-9.989174008E-1,7.232644558E-1
4.789647670E-1,7.806857824E-1,-1.054811597E0,7.350236177E-1
4.810651590E-1,8.002334833E-1,-1.090089083E0,7.408268452E-1
4.831663040E-1,8.147414923E-1,-1.111927509E0,7.357872128E-1
4.852645210E-1,8.304712772E-1,-1.115439892E0,7.197519541E-1
4.873631840E-1,8.411614299E-1,-1.110553026E0,6.927211881E-1
4.894571980E-1,8.457429409E-1,-1.110400319E0,6.524040699E-1
4.915682920E-1,8.416196108E-1,-1.117425203E0,6.059783101E-1
4.936689190E-1,8.303185701E-1,-1.102764487E0,5.633704662E-1
4.957717840E-1,8.118399382E-1,-1.056491494E0,5.245805383E-1
4.978673550E-1,7.835873961E-1,-9.834930301E-1,4.922046661E-1
4.999588150E-1,7.495316267E-1,-8.827002645E-1,4.671591818E-1
5.020583950E-1,7.057020664E-1,-7.551821470E-1,4.509712756E-1
5.041616570E-1,6.571382880E-1,-5.997169614E-1,4.422664344E-1
5.062745310E-1,5.989533663E-1,-4.311181605E-1,4.410447180E-1
5.083728490E-1,5.419901609E-1,-2.429716438E-1,4.436408877E-1
5.104677570E-1,4.776966274E-1,-3.543018550E-2,4.486805201E-1
5.125715580E-1,4.111123085E-1,1.829541475E-1,4.660901725E-1
5.146619310E-1,3.385720551E-1,4.219551682E-1,4.934264123E-1
5.167677150E-1,2.600758672E-1,6.791294217E-1,5.331326723E-1
5.188740900E-1,1.768454909E-1,9.266825914E-1,5.739079118E-1
5.209726810E-1,8.735372871E-2,1.165683627E0,6.099489331E-1
5.230707760E-1,-4.581489135E-3,1.381624460E0,6.409503818E-1
5.251772210E-1,-9.789115191E-2,1.575726867E0,6.646214128E-1
5.272781940E-1,-1.899790913E-1,1.746769190E0,6.820310354E-1
5.293798970E-1,-2.761110961E-1,1.892460585E0,6.895141602E-1
5.314767200E-1,-3.526219726E-1,2.012648344E0,6.944010854E-1
5.335705210E-1,-4.095851481E-1,2.115884542E0,6.977608204E-1
5.356794900E-1,-4.569272101E-1,2.202016592E0,6.936374903E-1
5.377768810E-1,-4.836525619E-1,2.274862289E0,6.905831695E-1
5.398702440E-1,-4.934264123E-1,2.321135283E0,6.797403097E-1
5.419779820E-1,-4.838052690E-1,2.344195366E0,6.699664593E-1
5.440687520E-1,-4.572326243E-1,2.344195366E0,6.563746929E-1
5.461840270E-1,-4.147774875E-1,2.313957453E0,6.388123035E-1
5.482820400E-1,-3.628539443E-1,2.262950182E0,6.148358583E-1
5.503882910E-1,-2.962696552E-1,2.182926893E0,5.845980644E-1
5.524817250E-1,-2.102903575E-1,2.076178312E0,5.491678715E-1
5.545749160E-1,-9.789115191E-2,1.878563404E0,4.984660447E-1
5.566849430E-1,6.429356337E-2,1.524261475E0,4.393648207E-1
5.587856400E-1,2.883284092E-1,9.636399150E-1,3.811798990E-1
5.608886870E-1,5.583308339E-1,2.344195396E-1,3.281873465E-1
5.629865780E-1,8.235990405E-1,-4.780020416E-1,2.751947939E-1
5.650850690E-1,1.040303469E0,-9.972375035E-1,2.160935849E-1
5.671787070E-1,1.198823094E0,-1.282358885E0,1.597412676E-1
5.692883360E-1,1.306488037E0,-1.387885809E0,1.131627858E-1
5.713889120E-1,1.369407177E0,-1.399950385E0,8.078692853E-2
5.734917060E-1,1.393689036E0,-1.375668526E0,6.597344577E-2
5.755858930E-1,1.390023828E0,-1.344056249E0,7.223481685E-2
5.776741710E-1,1.367269158E0,-1.304197311E0,9.697485715E-2
5.797912960E-1,1.331228137E0,-1.235169530E0,1.379028261E-1
5.818919640E-1,1.295186996E0,-1.138194680E0,1.850921661E-1
5.839973510E-1,1.257924199E0,-1.024268270E0,2.359467000E-1
5.860932380E-1,1.222035885E0,-9.115636349E-1,2.881756723E-1
5.881951670E-1,1.187216640E0,-8.159632683E-1,3.376557529E-1
5.902940030E-1,1.152397275E0,-7.347181439E-1,3.824016452E-1
5.923971530E-1,1.120021462E0,-6.632469296E-1,4.221078753E-1
5.945048190E-1,1.087492824E0,-5.954409242E-1,4.543310404E-1
5.965956390E-1,1.058629513E0,-5.274821520E-1,4.805982411E-1
5.986973240E-1,1.035722017E0,-4.560109079E-1,4.981606007E-1
6.007953350E-1,1.018770456E0,-3.880521357E-1,5.083925724E-1
6.028968880E-1,1.007927656E0,-3.249803185E-1,5.135849714E-1
6.049963040E-1,9.983065128E-1,-2.776382565E-1,5.126686692E-1
6.070974300E-1,9.934195876E-1,-2.448042482E-1,5.115996599E-1
6.091951270E-1,9.885326624E-1,-2.254092693E-1,5.080871582E-1
6.112896190E-1,9.824240208E-1,-2.180788964E-1,4.996877611E-1
6.134003470E-1,9.824240208E-1,-2.193006277E-1,4.923573732E-1
6.155010040E-1,9.786061049E-1,-2.264782935E-1,4.764748812E-1
6.176045100E-1,9.747881889E-1,-2.373211533E-1,4.569272101E-1
6.197043320E-1,9.732610583E-1,-2.518292069E-1,4.311181605E-1
6.218112150E-1,9.706648588E-1,-2.747366428E-1,3.981314301E-1
6.238923110E-1,9.714284539E-1,-3.086396754E-1,3.625485301E-1
6.260032130E-1,9.735664725E-1,-3.509420753E-1,3.255911767E-1
6.281008990E-1,9.830349088E-1,-3.932445049E-1,2.900082767E-1
6.302069680E-1,9.984592199E-1,-4.379903674E-1,2.518292069E-1
6.323054480E-1,1.019992232E0,-4.780020416E-1,2.159408629E-1
6.344072140E-1,1.047633886E0,-5.154175758E-1,1.800525337E-1
6.365060000E-1,1.081384182E0,-5.456553698E-1,1.467603743E-1
6.386066680E-1,1.120021462E0,-5.687155724E-1,1.133155003E-1
6.407070390E-1,1.160949349E0,-5.842925906E-1,8.231408894E-2
6.428077270E-1,1.204473495E0,-5.975789428E-1,5.131268129E-2
6.449088820E-1,1.250441194E0,-6.000223756E-1,2.275473066E-2
6.470087270E-1,1.295186996E0,-5.963571668E-1,-5.803219974E-3
6.491096280E-1,1.338711143E0,-5.902485251E-1,-3.176499158E-2
6.512106700E-1,1.378722906E0,-5.792529583E-1,-5.528330430E-2
6.533108290E-1,1.414916635E0,-5.645921826E-1,-7.757988572E-2
6.554126780E-1,1.447597861E0,-5.487096906E-1,-9.850201756E-2
6.575113520E-1,1.476613998E0,-5.317581892E-1,-1.171334088E-1
6.596126080E-1,1.500743151E0,-5.122104883E-1,-1.379028261E-1
6.617121350E-1,1.517694712E0,-4.891503453E-1,-1.551597714E-1
6.638132000E-1,1.533271790E0,-4.673119187E-1,-1.771509200E-1
6.659142740E-1,1.546558142E0,-4.428772926E-1,-1.966986060E-1
6.680155630E-1,1.553735733E0,-4.185954034E-1,-2.199114859E-1
6.701147850E-1,1.555873752E0,-3.918700516E-1,-2.431243658E-1
6.722154940E-1,1.554499388E0,-3.649919927E-1,-2.661845386E-1
6.743141870E-1,1.549612403E0,-3.358231783E-1,-2.831360400E-1
6.764070320E-1,1.539685845E0,-3.042109013E-1,-3.011565804E-1
6.785164690E-1,1.527468562E0,-2.787072659E-1,-3.156646192E-1
6.806175010E-1,1.512807727E0,-2.519819140E-1,-3.287982047E-1
6.827206410E-1,1.498147011E0,-2.263255715E-1,-3.408628106E-1
6.848198940E-1,1.478599310E0,-2.069306076E-1,-3.478877544E-1
6.869204300E-1,1.457982659E0,-1.922698319E-1,-3.526219726E-1
6.890225210E-1,1.435991526E0,-1.777617931E-1,-3.572034538E-1
6.911200140E-1,1.410487890E0,-1.655444801E-1,-3.617849350E-1
6.932207740E-1,1.383762479E0,-1.533271819E-1,-3.627012372E-1
6.953211570E-1,1.355815411E0,-1.459967941E-1,-3.623957932E-1
6.974209490E-1,1.327868342E0,-1.423316002E-1,-3.634648323E-1
6.995186050E-1,1.298699498E0,-1.398881376E-1,-3.619376719E-1
7.016272770E-1,1.263422012E0,-1.386664063E-1,-3.628539443E-1
7.037368360E-1,1.229366302E0,-1.435533315E-1,-3.613267839E-1
7.058253780E-1,1.194088817E0,-1.482875347E-1,-3.597996235E-1
7.079238680E-1,1.160185814E0,-1.531744599E-1,-3.558290005E-1
7.100195410E-1,1.127351761E0,-1.627955884E-1,-3.494149148E-1
7.121260880E-1,1.093448758E0,-1.750128865E-1,-3.419318199E-1
7.142265220E-1,1.063058257E0,-1.919644028E-1,-3.306308091E-1
7.163277180E-1,1.036485553E0,-2.041817009E-1,-3.207042515E-1
7.184283850E-1,1.010982037E0,-2.235766798E-1,-3.119994104E-1
7.205280040E-1,9.915869832E-1,-2.466368377E-1,-3.046690524E-1
7.226283460E-1,9.721920490E-1,-2.696970105E-1,-2.959642112E-1
7.247274470E-1,9.550877810E-1,-2.939788997E-1,-2.898555696E-1
7.268296820E-1,9.405797720E-1,-3.109304011E-1,-2.823724449E-1
7.289302480E-1,9.248499870E-1,-3.278819323E-1,-2.762638032E-1
7.310347490E-1,9.103419185E-1,-3.327688277E-1,-2.675589919E-1
7.331438700E-1,8.933904171E-1,-3.327688277E-1,-2.600758672E-1
7.352312730E-1,8.739954233E-1,-3.255911767E-1,-2.489275932E-1
7.373306780E-1,8.570439219E-1,-3.123048544E-1,-2.400700450E-1
7.394290460E-1,8.353582025E-1,-3.061962128E-1,-2.301434875E-1
7.415361330E-1,8.110763431E-1,-2.868012190E-1,-2.212859392E-1
7.436386830E-1,7.892379165E-1,-2.735149264E-1,-2.148718536E-1
7.457352810E-1,7.637342811E-1,-2.625193298E-1,-2.098322064E-1
7.478348500E-1,7.394523621E-1,-2.503020465E-1,-2.058615834E-1
7.499353950E-1,7.153232098E-1,-2.345722616E-1,-2.031126916E-1
7.520372930E-1,6.898195744E-1,-2.235766798E-1,-2.003637999E-1
7.541373800E-1,6.666067243E-1,-2.163990140E-1,-2.002110779E-1
7.562379560E-1,6.423248053E-1,-2.066251636E-1,-1.999056488E-1
7.583378510E-1,6.180428863E-1,-2.017382532E-1,-1.996002197E-1
7.604389860E-1,5.913175344E-1,-1.968513280E-1,-2.006692290E-1
7.625388600E-1,5.658139586E-1,-1.895209402E-1,-1.991420686E-1
7.646407680E-1,5.403103232E-1,-1.774563491E-1,-1.988366395E-1
7.667454030E-1,5.135849714E-1,-1.615738571E-1,-1.997529417E-1
7.688421440E-1,4.880813360E-1,-1.421788931E-1,-1.994474977E-1
7.709413460E-1,4.637994468E-1,-1.238529310E-1,-1.991420686E-1
7.730409050E-1,4.419609904E-1,-1.044579595E-1,-1.976149082E-1
7.751403720E-1,4.189008474E-1,-8.628471941E-2,-1.974621862E-1
7.772367670E-1,3.969096839E-1,-7.055493444E-2,-1.947132945E-1
7.793435470E-1,3.787364662E-1,-5.833763257E-2,-1.908953935E-1
7.814441230E-1,3.593414724E-1,-4.505131021E-2,-1.869247705E-1
7.835464090E-1,3.411682248E-1,-3.283400834E-2,-1.855503172E-1
7.856427730E-1,3.254384696E-1,-2.306016348E-2,-1.852448881E-1
7.877307250E-1,3.058907688E-1,-1.588249579E-2,-1.850921661E-1
7.898465690E-1,2.877175212E-1,-1.099557430E-2,-1.873829067E-1
7.919469310E-1,2.669481039E-1,-8.552113548E-3,-1.921171248E-1
7.940511700E-1,2.499966025E-1,-2.443460980E-3,-1.979203373E-1
7.961499250E-1,2.304489166E-1,2.596177394E-3,-2.063197345E-1
7.982548950E-1,2.121229619E-1,7.483099122E-3,-2.147191316E-1
8.003495090E-1,1.950187236E-1,1.237002108E-2,-2.231185287E-1
8.024504300E-1,1.803579628E-1,2.214386500E-2,-2.339613885E-1
8.045484330E-1,1.632537395E-1,2.458732575E-2,-2.423607856E-1
8.066491520E-1,1.485929638E-1,2.947424725E-2,-2.532036304E-1
8.087468900E-1,1.363756657E-1,3.680463135E-2,-2.591595948E-1
8.108363970E-1,1.241583601E-1,3.680463135E-2,-2.687807083E-1
8.129530150E-1,1.143845171E-1,3.451388702E-2,-2.748893499E-1
8.150527570E-1,1.058324054E-1,2.840523422E-2,-2.747366428E-1
8.171573810E-1,9.972374886E-2,2.107485011E-2,-2.759583890E-1
8.192580690E-1,9.621127695E-2,9.010262787E-3,-2.722931802E-1
8.213678200E-1,9.621127695E-2,-3.207042580E-3,-2.663372457E-1
8.234553850E-1,9.743300825E-2,-1.649336144E-2,-2.565633953E-1
8.255552190E-1,1.012509167E-1,-3.359758854E-2,-2.469422817E-1
8.276526620E-1,1.061378345E-1,-5.177082866E-2,-2.335032374E-1
8.297592080E-1,1.087340117E-1,-6.765332818E-2,-2.214386463E-1
8.318681760E-1,1.123992056E-1,-8.109235764E-2,-2.093740702E-1
8.339582340E-1,1.137736514E-1,-9.804387391E-2,-1.959350258E-1
8.360593090E-1,1.162171140E-1,-1.114829108E-1,-1.875356287E-1
8.381560700E-1,1.163698286E-1,-1.188132912E-1,-1.740965992E-1
8.402594930E-1,1.188132912E-1,-1.237002090E-1,-1.655444801E-1
8.423598460E-1,1.214094684E-1,-1.285871267E-1,-1.545489132E-1
8.444611740E-1,1.226311997E-1,-1.285871267E-1,-1.459967941E-1
8.465609260E-1,1.275181174E-1,-1.201877370E-1,-1.362229437E-1
8.486616350E-1,1.288925707E-1,-1.093448773E-1,-1.276708394E-1
8.507626260E-1,1.313360333E-1,-9.712757170E-2,-1.191187203E-1
8.528635790E-1,1.337794960E-1,-8.139779419E-2,-1.166752651E-1
8.549631180E-1,1.375973970E-1,-6.688974798E-2,-1.116356254E-1
8.570642540E-1,1.375973970E-1,-5.238169432E-2,-1.104138941E-1
8.591640970E-1,1.375973970E-1,-3.772092983E-2,-1.116356254E-1
8.612649560E-1,1.400408596E-1,-2.199114859E-2,-1.090394482E-1
8.633628470E-1,1.363756657E-1,-1.343903504E-2,-1.102611795E-1
8.654558640E-1,1.302670091E-1,-6.261368748E-3,-1.113301888E-1
8.675659620E-1,1.217148975E-1,-2.596177394E-3,-1.149953827E-1
8.696682570E-1,1.108720452E-1,1.069014193E-3,-1.185078546E-1
8.717700230E-1,9.498954564E-2,3.512475174E-3,-1.207986027E-1
8.738686960E-1,8.032877743E-2,1.221730490E-3,-1.267545372E-1
8.759700460E-1,6.093380973E-2,-0.000000000E0,-1.302670091E-1
8.780698590E-1,4.016438872E-2,-1.221730490E-3,-1.350012124E-1
8.801698140E-1,1.695151068E-2,-4.734205548E-3,-1.409571618E-1
8.822700340E-1,-6.108652335E-3,-9.621127509E-3,-1.456913650E-1
8.843710060E-1,-2.809980139E-2,-8.399397135E-3,-1.490511149E-1
8.864722340E-1,-4.871650413E-2,-7.024950348E-3,-1.525636017E-1
8.885707240E-1,-7.055493444E-2,-8.246680722E-3,-1.560760736E-1
8.906728450E-1,-8.888089657E-2,-3.359758761E-3,-1.608102769E-1
8.927729530E-1,-1.035416573E-1,1.527163084E-3,-1.655444801E-1
8.948745060E-1,-1.180497110E-1,6.414085161E-3,-1.678352207E-1
8.969719790E-1,-1.302670091E-1,1.007927675E-2,-1.676825136E-1
8.990662580E-1,-1.351539344E-1,1.374446787E-2,-1.675297916E-1
9.011757040E-1,-1.411098689E-1,2.092213556E-2,-1.650863290E-1
9.032769420E-1,-1.423316002E-1,2.703078650E-2,-1.650863290E-1
9.053786060E-1,-1.435533315E-1,3.069597855E-2,-1.624901593E-1
9.074770450E-1,-1.447750628E-1,3.543018550E-2,-1.624901593E-1
9.095778140E-1,-1.447750628E-1,4.276056588E-2,-1.612684280E-1
9.116786950E-1,-1.423316002E-1,5.131268129E-2,-1.637118906E-1
9.137791590E-1,-1.398881376E-1,5.742133409E-2,-1.637118906E-1
9.158792470E-1,-1.398881376E-1,6.704246253E-2,-1.649336219E-1
9.179799040E-1,-1.374446750E-1,7.559457421E-2,-1.649336219E-1
9.200812420E-1,-1.339322031E-1,8.170322329E-2,-1.698205322E-1
9.221809130E-1,-1.314887404E-1,8.399397135E-2,-1.698205322E-1
9.242809500E-1,-1.278235465E-1,8.643743396E-2,-1.710422635E-1
9.263800720E-1,-1.253800988E-1,8.765916526E-2,-1.722639948E-1
9.284812370E-1,-1.204931661E-1,8.643743396E-2,-1.734857261E-1
9.305806930E-1,-1.180497110E-1,8.643743396E-2,-1.710422635E-1
9.326736700E-1,-1.131627858E-1,9.010262042E-2,-1.699732542E-1
9.347842770E-1,-1.094975919E-1,9.010262042E-2,-1.663080603E-1
9.368856060E-1,-1.058324054E-1,8.888089657E-2,-1.650863290E-1
9.389879310E-1,-1.009454802E-1,8.765916526E-2,-1.589776874E-1
9.410869600E-1,-9.605856240E-2,7.910704613E-2,-1.542434692E-1
9.431876070E-1,-8.872817457E-2,7.422012836E-2,-1.469130963E-1
9.452871760E-1,-8.384125680E-2,6.811147183E-2,-1.397354305E-1
9.473873250E-1,-7.773260027E-2,6.444628537E-2,-1.324050426E-1
9.494880220E-1,-7.147123665E-2,5.711590126E-2,-1.240056455E-1
9.515873370E-1,-6.658431143E-2,5.345070735E-2,-1.166752651E-1
9.536848710E-1,-6.047565863E-2,4.734205827E-2,-1.058324054E-1
9.557899220E-1,-5.436700583E-2,4.123340547E-2,-9.850201756E-2
9.578901730E-1,-4.810563847E-2,3.023782931E-2,-8.765916526E-2
9.599917970E-1,-4.199698567E-2,2.046398632E-2,-8.048149943E-2
9.620912030E-1,-3.588833287E-2,8.399397135E-3,-7.070764899E-2
9.641893160E-1,-3.100141138E-2,-1.374446787E-3,-6.352998316E-2
9.662812760E-1,-2.611448988E-2,-9.926560335E-3,-5.742133409E-2
9.683893490E-1,-2.107485011E-2,-1.481348183E-2,-5.146539584E-2
9.704949300E-1,-1.496619824E-2,-1.603521220E-2,-4.780020565E-2
9.725973070E-1,-1.252273750E-2,-1.237002108E-2,-4.413501546E-2
9.746969260E-1,-8.857546374E-3,-9.926560335E-3,-4.291328415E-2
9.767876850E-1,-6.566801574E-3,-8.704829961E-3,-4.413501546E-2
9.788962360E-1,-2.748893574E-3,-5.192354787E-3,-4.169155285E-2
9.809954080E-1,-1.679879380E-3,9.162978968E-4,-4.535674304E-2
9.830986800E-1,-1.679879380E-3,7.024950348E-3,-4.657847434E-2
9.851979130E-1,-1.679879380E-3,1.191187184E-2,-5.024366826E-2
9.872989270E-1,-1.679879380E-3,1.802052557E-2,-5.390885845E-2
9.893990030E-1,-1.679879380E-3,2.397646010E-2,-6.001751125E-2
9.914988570E-1,-1.679879380E-3,3.130684420E-2,-6.246097013E-2
9.935990060E-1,-6.108652451E-4,3.497203439E-2,-6.490442902E-2
9.956983100E-1,-6.108652451E-4,3.741549700E-2,-6.856962293E-2
9.977995770E-1,1.832595794E-3,3.985895589E-2,-7.101308554E-2
9.998994410E-1,3.054326167E-3,4.108068720E-2,-7.223481685E-2
1.001989915E0,5.497787148E-3,3.985895589E-2,-7.101308554E-2
1.004093818E0,7.941247895E-3,4.108068720E-2,-6.734789163E-2
1.006203336E0,1.282817032E-2,3.497203439E-2,-5.879577994E-2
1.008304298E0,2.260201424E-2,2.886338346E-2,-5.528330430E-2
1.010397437E0,3.115412779E-2,2.153299935E-2,-5.665775016E-2
1.012502377E0,3.711006418E-2,1.069014147E-2,-5.787948146E-2
1.014595222E0,3.955352306E-2,2.138028387E-3,-6.291911751E-2
1.016708320E0,4.444044828E-2,3.359758761E-3,-6.658431143E-2
1.018809486E0,5.039638281E-2,2.153299935E-2,-6.780604273E-2
1.020923347E0,5.665775016E-2,3.970624134E-2,-6.414084882E-2
1.023007372E0,6.276640296E-2,6.154467165E-2,-5.925392732E-2
1.025108070E0,7.009678334E-2,7.131851465E-2,-5.192354694E-2
1.027204720E0,7.742717117E-2,6.765332818E-2,-4.337143153E-2
1.029308764E0,8.353582025E-2,5.177082866E-2,-3.619376570E-2
1.031409635E0,8.964447677E-2,3.237585723E-2,-3.145955876E-2
1.033510668E0,9.697485715E-2,1.527163107E-2,-2.428189293E-2
1.035610827E0,1.030835137E-1,-1.679879380E-3,-2.076941915E-2
1.037712156E0,1.104138941E-1,-1.145372353E-2,-1.588249579E-2
1.039811744E0,1.189660057E-1,-1.389718428E-2,-1.114829071E-2
1.041909574E0,1.250746548E-1,-7.788531948E-3,-8.704829961E-3
1.044002245E0,1.299615800E-1,-1.832595794E-3,-3.817907767E-3
1.046113320E0,1.348485053E-1,5.497787148E-3,1.069014193E-3
1.048211515E0,1.409571618E-1,1.038470957E-2,5.955935922E-3
1.050307686E0,1.459967941E-1,9.010262787E-3,1.313360315E-2
1.052412605E0,1.533271819E-1,9.010262787E-3,2.046398632E-2
1.054506071E0,1.631010175E-1,5.345070735E-3,3.008511290E-2
1.056616881E0,1.716531366E-1,-1.985311974E-3,3.726277873E-2
1.058715778E0,1.789835095E-1,-6.872233935E-3,4.581489414E-2
1.060819578E0,1.875356287E-1,-1.175915636E-2,5.299255997E-2
1.062915891E0,1.973094791E-1,-1.420261711E-2,6.032294407E-2
1.065008950E0,2.046398520E-1,-1.786780916E-2,6.505715102E-2
1.067114989E0,2.107485086E-1,-2.397646010E-2,7.116580009E-2
1.069219593E0,2.193006277E-1,-2.519819140E-2,7.467827946E-2
1.071323006E0,2.254092693E-1,-3.130684420E-2,7.712173462E-2
1.073420571E0,2.315179259E-1,-3.741549700E-2,7.941248268E-2
1.075518299E0,2.388483137E-1,-4.474587739E-2,8.048149943E-2
1.077622904E0,2.474004179E-1,-4.948008433E-2,7.925976813E-2
1.079722177E0,2.545780838E-1,-5.192354694E-2,7.544185966E-2
1.081823943E0,2.643519342E-1,-5.192354694E-2,7.177666575E-2
1.083922972E0,2.739730477E-1,-4.948008433E-2,6.795875728E-2
1.086021961E0,2.835941911E-1,-4.581489414E-2,6.062837690E-2
1.088114969E0,2.921462953E-1,-4.337143153E-2,5.558873713E-2
1.090224781E0,3.029891551E-1,-3.848451003E-2,4.703662544E-2
1.092322701E0,3.162754774E-1,-3.252857551E-2,3.833179548E-2
1.094418131E0,3.271183372E-1,-1.908953860E-2,2.977968007E-2
1.096525482E0,3.379611969E-1,-9.315694682E-3,2.122756653E-2
1.098623229E0,3.489567637E-1,5.192354787E-3,1.252273750E-2
1.100730335E0,3.610213697E-1,2.107485011E-2,2.748893574E-3
1.102828541E0,3.718642294E-1,3.558290005E-2,-5.803219974E-3
1.104931305E0,3.814853430E-1,4.780020565E-2,-1.328631863E-2
1.107026997E0,3.900374472E-1,5.986479297E-2,-2.183843218E-2
1.109121063E0,3.972151279E-1,7.208210230E-2,-3.161227703E-2
1.111230152E0,4.033237696E-1,8.429940045E-2,-3.772092983E-2
1.113330962E0,4.092797041E-1,9.514226019E-2,-4.505131021E-2
1.115433623E0,4.153883755E-1,1.036943719E-1,-4.871650413E-2
1.117531921E0,4.201225638E-1,1.133155003E-1,-5.238169432E-2
1.119630188E0,4.250094891E-1,1.182024255E-1,-5.360342562E-2
1.121723917E0,4.323398769E-1,1.230893433E-1,-5.253441259E-2
1.123833659E0,4.372268021E-1,1.243110746E-1,-5.009094998E-2
1.125932577E0,4.421137273E-1,1.255328059E-1,-4.642575979E-2
1.128035807E0,4.470006526E-1,1.253800988E-1,-3.909537569E-2
1.130134541E0,4.495968223E-1,1.266018152E-1,-3.176499158E-2
1.132232747E0,4.520402849E-1,1.217148975E-1,-2.336559631E-2
1.134336894E0,4.544837475E-1,1.192714423E-1,-1.114829071E-2
1.136437104E0,4.546364546E-1,1.131627858E-1,2.290744567E-3
1.138539541E0,4.535674453E-1,1.009454802E-1,1.817324013E-2
1.140638092E0,4.512766898E-1,8.628471941E-2,3.023782931E-2
1.142737701E0,4.502076805E-1,7.528914511E-2,4.612032697E-2
1.144840434E0,4.453207552E-1,6.444628537E-2,5.955936015E-2
1.146939738E0,4.405865669E-1,5.222897977E-2,7.299839705E-2
1.149041007E0,4.334088862E-1,4.489859566E-2,8.643743396E-2
1.151141419E0,4.237877727E-1,3.756821156E-2,9.880745411E-2
1.153245769E0,4.129449129E-1,3.390302137E-2,1.134682223E-1
1.155343140E0,4.021020532E-1,2.779436857E-2,1.282816976E-1
1.157442567E0,3.901901841E-1,2.046398632E-2,1.429424733E-1
1.159542572E0,3.793473244E-1,1.191187184E-2,1.577559561E-1
1.161643280E0,3.660610020E-1,3.359758761E-3,1.724167168E-1
1.163741527E0,3.527746797E-1,-3.970623948E-3,1.860084683E-1
1.165834474E0,3.394883573E-1,-1.252273750E-2,2.008219510E-1
1.167945629E0,3.249803185E-1,-1.618792862E-2,2.130392492E-1
1.170046061E0,3.094032407E-1,-2.596177347E-2,2.290744632E-1
1.172149801E0,2.924517393E-1,-3.436116874E-2,2.402227521E-1
1.174244172E0,2.767219543E-1,-4.657847434E-2,2.524400651E-1
1.176337037E0,2.573269904E-1,-5.879577994E-2,2.623666227E-1
1.178448284E0,2.415972054E-1,-6.963863969E-2,2.698497176E-1
1.180548493E0,2.270891517E-1,-7.452555746E-2,2.748893499E-1
1.182651744E0,2.124283910E-1,-7.574728876E-2,2.785545588E-1
1.184749381E0,2.028072625E-1,-7.452555746E-2,2.811507285E-1
1.186849336E0,1.966986060E-1,-7.330382615E-2,2.848159075E-1
1.188951092E0,1.907426715E-1,-7.208210230E-2,2.861903608E-1
1.191051372E0,1.870774776E-1,-7.208210230E-2,2.874121070E-1
1.193152549E0,1.858557463E-1,-7.330382615E-2,2.886338234E-1
1.195252707E0,1.870774776E-1,-7.696902007E-2,2.898555696E-1
1.197353131E0,1.907426715E-1,-8.552113175E-2,2.909245789E-1
1.199453665E0,1.931861341E-1,-9.880745411E-2,2.945897579E-1
1.201551353E0,1.956295967E-1,-1.157589629E-1,2.968805134E-1
1.203644635E0,1.992947906E-1,-1.365283877E-1,2.993239760E-1
1.205756105E0,1.980730593E-1,-1.583668143E-1,3.028364480E-1
1.207853223E0,1.956295967E-1,-1.850921661E-1,3.052799106E-1
1.209949199E0,1.907426715E-1,-2.092213482E-1,3.075706363E-1
1.212057639E0,1.821905524E-1,-2.322815061E-1,3.087923825E-1
1.214157809E0,1.736384481E-1,-2.602286041E-1,3.075706363E-1
1.216260206E0,1.591303945E-1,-2.881756723E-1,3.087923825E-1
1.218358208E0,1.456913650E-1,-3.171917796E-1,3.112358451E-1
1.220459637E0,1.324050426E-1,-3.439171314E-1,3.112358451E-1
1.222561047E0,1.189660057E-1,-3.694207668E-1,3.124575615E-1
1.224660026E0,1.055269688E-1,-3.949243724E-1,3.100140989E-1
1.226760419E0,9.330966324E-2,-4.143193662E-1,3.100140989E-1
1.228863721E0,8.124507964E-2,-4.324925840E-1,3.077233732E-1
1.230973727E0,6.902777404E-2,-4.482223690E-1,3.028364480E-1
1.233062624E0,5.314527452E-2,-4.578435123E-1,2.979495227E-1
1.235162753E0,3.726277873E-2,-4.651738703E-1,2.932153046E-1
1.237258080E0,2.015855350E-2,-4.699080884E-1,2.848159075E-1
1.239354973E0,1.832595794E-3,-4.711298347E-1,2.751947939E-1
1.241462598E0,-1.771509275E-2,-4.721988440E-1,2.655736506E-1
1.243555179E0,-3.955352306E-2,-4.770857692E-1,2.559525371E-1
1.245666151E0,-5.803219974E-2,-4.891503453E-1,2.426662147E-1
1.247764876E0,-7.880161703E-2,-5.059491396E-1,2.293798923E-1
1.249869652E0,-9.834930301E-2,-5.265658498E-1,2.159408629E-1
1.251967451E0,-1.178969890E-1,-5.531384945E-1,2.014328092E-1
1.254068006E0,-1.362229437E-1,-5.821545720E-1,1.867720485E-1
1.256169996E0,-1.559233516E-1,-6.125451326E-1,1.733330190E-1
1.258269280E0,-1.766927689E-1,-6.391177773E-1,1.539380401E-1
1.260369540E0,-1.962404549E-1,-6.644686460E-1,1.380555481E-1
1.262467512E0,-2.183843255E-1,-6.873761415E-1,1.174388453E-1
1.264562615E0,-2.391537428E-1,-7.104362845E-1,9.911288321E-2
1.266671746E0,-2.588541508E-1,-7.345654368E-1,7.605272532E-2
1.268772098E0,-2.809980214E-1,-7.586946487E-1,5.543602258E-2
1.270874423E0,-3.029891551E-1,-7.852672935E-1,3.588833287E-2
1.272973890E0,-3.214678466E-1,-8.130616546E-1,1.634064503E-2
1.275071221E0,-3.385720551E-1,-8.422304392E-1,3.054326167E-3
1.277163893E0,-3.520110846E-1,-8.749117255E-1,-1.053742506E-2
1.279275161E0,-3.619376719E-1,-9.112582207E-1,-1.786780916E-2
1.281374667E0,-3.680463135E-1,-9.537133574E-1,-1.924225502E-2
1.283478071E0,-3.729332387E-1,-1.004720569E0,-2.183843218E-2
1.285573602E0,-3.741549551E-1,-1.055575132E0,-1.954768784E-2
1.287666701E0,-3.753767014E-1,-1.109025836E0,-1.740965992E-2
1.289778141E0,-3.778201640E-1,-1.162323833E0,-1.756237634E-2
1.291877455E0,-3.790418804E-1,-1.215774536E0,-1.649336144E-2
1.293980921E0,-3.816380501E-1,-1.265560031E0,-1.542434748E-2
1.296077295E0,-3.840815127E-1,-1.315345645E0,-1.450804994E-2
1.298171432E0,-3.865249753E-1,-1.363756657E0,-1.710422710E-2
1.300280124E0,-3.926336467E-1,-1.404990077E0,-1.603521220E-2
1.302380365E0,-3.999640048E-1,-1.440267563E0,-1.970040426E-2
1.304483647E0,-4.060726762E-1,-1.475392342E0,-2.229658142E-2
1.306582982E0,-4.121813178E-1,-1.499674201E0,-2.962696366E-2
1.308684311E0,-4.159992337E-1,-1.515403986E0,-4.062253982E-2
1.310783248E0,-4.185954034E-1,-1.528690219E0,-5.528330430E-2
1.312883030E0,-4.224133193E-1,-1.540754914E0,-7.131851465E-2
1.314981501E0,-4.250094891E-1,-1.549154282E0,-9.086620808E-2
1.317082534E0,-4.263839424E-1,-1.556331873E0,-1.140790880E-1
1.319180863E0,-4.277583957E-1,-1.563509583E0,-1.385136992E-1
1.321275710E0,-4.305072725E-1,-1.573130727E0,-1.641700417E-1
1.323387436E0,-4.392121136E-1,-1.580308437E0,-1.873829067E-1
1.325486750E0,-4.491386712E-1,-1.585042596E0,-2.141082734E-1
1.327589514E0,-4.615086913E-1,-1.593441963E0,-2.409863323E-1
1.329684412E0,-4.775438905E-1,-1.605506539E0,-2.689334154E-1
1.331777165E0,-4.960225821E-1,-1.619861960E0,-2.982549667E-1
1.333889440E0,-5.108360648E-1,-1.637882471E0,-3.274237812E-1
1.335989293E0,-5.305364728E-1,-1.664455056E0,-3.579670191E-1
1.338092758E0,-5.502368808E-1,-1.691027761E0,-3.860668242E-1
1.340191411E0,-5.687155724E-1,-1.717600346E0,-4.127921760E-1
1.342291366E0,-5.884159207E-1,-1.749059916E0,-4.372268021E-1
1.344392044E0,-6.068946123E-1,-1.780519485E0,-4.555527568E-1
1.346492691E0,-6.227771044E-1,-1.810757279E0,-4.763221741E-1
1.348592362E0,-6.327036619E-1,-1.839773417E0,-4.909829497E-1
1.350694667E0,-6.414085031E-1,-1.867720485E0,-5.068654418E-1
1.352799861E0,-6.450737119E-1,-1.894293070E0,-5.180137157E-1
1.354894863E0,-6.403394938E-1,-1.923461914E0,-5.316054821E-1
1.356995632E0,-6.307183504E-1,-1.948812842E0,-5.415320396E-1
1.359093807E0,-6.149885654E-1,-1.970651269E0,-5.516113043E-1
1.361196141E0,-5.969680548E-1,-1.990046263E0,-5.603161454E-1
1.363293585E0,-5.775730610E-1,-2.011884689E0,-5.679519773E-1
1.365386653E0,-5.545129180E-1,-2.030057907E0,-5.719226003E-1
1.367497453E0,-5.290092826E-1,-2.044718742E0,-5.795583725E-1
1.369598161E0,-5.059491396E-1,-2.053117990E0,-5.809328556E-1
1.371701951E0,-4.816672504E-1,-2.056783199E0,-5.824599862E-1
1.373796586E0,-4.586070776E-1,-2.052049160E0,-5.813909769E-1
1.375885494E0,-4.341724813E-1,-2.042275190E0,-5.791002512E-1
1.377999121E0,-4.123340547E-1,-2.026545525E0,-5.743660331E-1
1.380100653E0,-3.891211748E-1,-2.009593964E0,-5.696318150E-1
1.382204718E0,-3.648392558E-1,-1.996307611E0,-5.636758804E-1
1.384299587E0,-3.404046595E-1,-1.984243035E0,-5.589417219E-1
1.386392717E0,-3.184134960E-1,-1.973400116E0,-5.542075038E-1
1.388503913E0,-2.965750694E-1,-1.972178459E0,-5.458080769E-1
1.390604478E0,-2.794708610E-1,-1.981952310E0,-5.424483418E-1
1.392706713E0,-2.648100853E-1,-1.994169593E0,-5.364924073E-1
1.394805030E0,-2.515237629E-1,-2.009899378E0,-5.329799056E-1
1.396904354E0,-2.429716438E-1,-2.032959461E0,-5.270239711E-1
1.399003618E0,-2.356412709E-1,-2.062128305E0,-5.198463202E-1
1.401106126E0,-2.319760770E-1,-2.087631941E0,-5.126686692E-1
1.403206814E0,-2.257147133E-1,-2.105957985E0,-5.018258095E-1
1.405308173E0,-2.196060568E-1,-2.121687651E0,-4.922046661E-1
1.407406857E0,-2.134974003E-1,-2.131461620E0,-4.787656367E-1
1.409500494E0,-2.011273801E-1,-2.134057760E0,-4.654793143E-1
1.411609361E0,-1.876883507E-1,-2.130392551E0,-4.497495294E-1
1.413710863E0,-1.693623960E-1,-2.126880169E0,-4.327980280E-1
1.415812426E0,-1.447750628E-1,-2.123367548E0,-4.121813178E-1
1.417911699E0,-1.154535338E-1,-2.124742031E0,-3.904955983E-1
1.420015021E0,-8.246681094E-2,-2.129628897E0,-3.675881624E-1
1.422112434E0,-4.337143153E-2,-2.138333797E0,-3.422372639E-1
1.424213284E0,6.108652451E-4,-2.149329424E0,-3.207042515E-1
1.426311826E0,4.688390717E-2,-2.161546707E0,-2.979495227E-1
1.428411060E0,9.575312585E-2,-2.173916578E0,-2.776382565E-1
1.430504789E0,1.444696337E-1,-2.188577414E0,-2.623666227E-1
1.432614784E0,1.944078654E-1,-2.200794697E0,-2.481640130E-1
1.434713692E0,2.443460971E-1,-2.215455532E0,-2.364048511E-1
1.436817858E0,2.929098904E-1,-2.226451159E0,-2.295326144E-1
1.438916257E0,3.391829133E-1,-2.232559681E0,-2.226603776E-1
1.441015602E0,3.830125034E-1,-2.237446785E0,-2.194533348E-1
1.443106921E0,4.243986309E-1,-2.231490850E0,-2.197587788E-1
1.445216449E0,4.668537676E-1,-2.221716881E0,-2.200642079E-1
1.447316516E0,5.057964325E-1,-2.199878454E0,-2.240348309E-1
1.449420153E0,5.421429276E-1,-2.178192854E0,-2.292271852E-1
1.451522886E0,5.798638463E-1,-2.147802114E0,-2.367102802E-1
1.453633197E0,6.149885654E-1,-2.116189957E0,-2.441933751E-1
1.455721230E0,6.466008425E-1,-2.081065178E0,-2.516764700E-1
1.457822091E0,6.757696867E-1,-2.042275190E0,-2.591595948E-1
1.459918383E0,7.012733221E-1,-2.008219481E0,-2.640464902E-1
1.462022469E0,7.243334651E-1,-1.973094702E0,-2.703078687E-1
1.464123106E0,7.377725244E-1,-1.941482425E0,-2.727513313E-1
1.466224068E0,7.449501753E-1,-1.913688064E0,-2.762638032E-1
1.468324461E0,7.449501753E-1,-1.886962771E0,-2.787072659E-1
1.470424303E0,7.437284589E-1,-1.861459136E0,-2.809980214E-1
1.472523425E0,7.353290319E-1,-1.839620709E0,-2.808452845E-1
1.474618224E0,7.231117487E-1,-1.821447492E0,-2.843577862E-1
1.476721017E0,7.061602473E-1,-1.803121448E0,-2.852740586E-1
1.478827371E0,6.890559793E-1,-1.793500304E0,-2.851213515E-1
1.480930032E0,6.757696867E-1,-1.783726573E0,-2.825251818E-1
1.483028909E0,6.623306274E-1,-1.772730947E0,-2.823724449E-1
1.485125558E0,6.527095437E-1,-1.761888027E0,-2.785545588E-1
1.487218230E0,6.443101168E-1,-1.744936585E0,-2.759583890E-1
1.489329609E0,6.382014751E-1,-1.725388885E0,-2.758056521E-1
1.491430866E0,6.333145499E-1,-1.697594523E0,-2.756529450E-1
1.493533059E0,6.296493411E-1,-1.676977873E0,-2.755002379E-1
1.495630869E0,6.259841323E-1,-1.654986620E0,-2.814561725E-1
1.497729197E0,6.259841323E-1,-1.629482985E0,-2.900082767E-1
1.499830230E0,6.270532012E-1,-1.602757692E0,-3.020728528E-1
1.501920185E0,6.331618428E-1,-1.574810624E0,-3.167336285E-1
1.504023650E0,6.403394938E-1,-1.540754914E0,-3.300199509E-1
1.506132771E0,6.522513628E-1,-1.506851792E0,-3.483459055E-1
1.508236714E0,6.692028642E-1,-1.472796082E0,-3.642283976E-1
1.510338083E0,6.898195744E-1,-1.442405581E0,-3.827070892E-1
1.512433084E0,7.127270103E-1,-1.414458513E0,-3.985895813E-1
1.514523660E0,7.392996550E-1,-1.390176535E0,-4.182899892E-1
1.516623870E0,7.672467232E-1,-1.374294043E0,-4.343251884E-1
1.518725260E0,7.962628603E-1,-1.362229466E0,-4.529565871E-1
1.520830210E0,8.277224302E-1,-1.357342601E0,-4.677700698E-1
1.522941548E0,8.616254330E-1,-1.354899168E0,-4.815145433E-1
1.525042043E0,8.967501521E-1,-1.354899168E0,-4.903720617E-1
1.527141835E0,9.332493544E-1,-1.357342601E0,-4.957171381E-1
1.529241343E0,9.697485566E-1,-1.356120825E0,-4.960225821E-1
1.531345580E0,1.009760261E0,-1.354899168E0,-4.914411008E-1
1.533441427E0,1.050077319E0,-1.353830099E0,-4.783074856E-1
1.535541484E0,1.093906879E0,-1.346652389E0,-4.616613984E-1
1.537640931E0,1.137889266E0,-1.333366156E0,-4.411974251E-1
1.539740173E0,1.181871533E0,-1.319010735E0,-4.231768847E-1
1.541834025E0,1.219592452E0,-1.304502726E0,-4.063780904E-1
1.543944122E0,1.256244421E0,-1.291216373E0,-3.895792961E-1
1.546044474E0,1.285565853E0,-1.275639296E0,-3.714060783E-1
1.548148193E0,1.310000539E0,-1.259909511E0,-3.556762934E-1
1.550245727E0,1.328479171E0,-1.244179845E0,-3.387247920E-1
1.552345958E0,1.343140006E0,-1.226159215E0,-3.203988075E-1
1.554446524E0,1.350623012E0,-1.209207773E0,-3.081815243E-1
1.556547160E0,1.354288220E0,-1.200808406E0,-2.947424948E-1
1.558649018E0,1.355662704E0,-1.176526427E0,-2.787072659E-1
1.560747996E0,1.353524685E0,-1.147510409E0,-2.577851415E-1
1.562844574E0,1.345125318E0,-1.119563222E0,-2.393064648E-1
1.564931031E0,1.337947607E0,-1.102764487E0,-2.232712507E-1
1.567040701E0,1.329548240E0,-1.077260852E0,-2.096794993E-1
1.569140351E0,1.321301579E0,-1.045801282E0,-1.947132945E-1
1.571255330E0,1.310458660E0,-1.016632438E0,-1.872301996E-1
1.573352194E0,1.300837517E0,-9.863946438E-1,-1.785253733E-1
1.575451580E0,1.287398458E0,-9.596692920E-1,-1.745547503E-1
1.577553020E0,1.275333881E0,-9.390525818E-1,-1.682933718E-1
1.579653005E0,1.263269305E0,-9.184358716E-1,-1.669189334E-1
1.581754304E0,1.251052022E0,-8.978192210E-1,-1.653917581E-1
1.583851920E0,1.238987446E0,-8.759807348E-1,-1.627955884E-1
1.585946586E0,1.230435371E0,-8.588765264E-1,-1.626428664E-1
1.588055563E0,1.224479437E0,-8.419250250E-1,-1.624901593E-1
1.590156037E0,1.219592452E0,-8.333728909E-1,-1.624901593E-1
1.592256786E0,1.218370676E0,-8.261952400E-1,-1.635591686E-1
1.594346773E0,1.217149019E0,-8.176431060E-1,-1.684460938E-1
1.596455039E0,1.219592452E0,-8.078693151E-1,-1.721112877E-1
1.598548179E0,1.221883178E0,-7.982481718E-1,-1.794416606E-1
1.600661113E0,1.224326611E0,-7.909177542E-1,-1.867720485E-1
1.602759065E0,1.226617455E0,-7.799221873E-1,-1.941024363E-1
1.604862124E0,1.230282545E0,-7.677049041E-1,-2.038762718E-1
1.606958569E0,1.228908181E0,-7.580837607E-1,-2.122756690E-1
1.609054740E0,1.228908181E0,-7.507534027E-1,-2.232712507E-1
1.611161348E0,1.227533698E0,-7.409795523E-1,-2.342668176E-1
1.613262565E0,1.223868489E0,-7.336491346E-1,-2.463314086E-1
1.615364870E0,1.216385365E0,-7.287622094E-1,-2.622139156E-1
1.617463035E0,1.207833290E0,-7.214318514E-1,-2.779437006E-1
1.619565543E0,1.199128509E0,-7.163922191E-1,-2.938261926E-1
1.621671002E0,1.188132882E0,-7.090618610E-1,-3.083342314E-1
1.623764763E0,1.176984668E0,-6.992880106E-1,-3.203988075E-1
1.625866122E0,1.163545609E0,-6.882924438E-1,-3.312416673E-1
1.627963849E0,1.150106549E0,-6.750060916E-1,-3.420845270E-1
1.630066377E0,1.139110923E0,-6.579018831E-1,-3.504839242E-1
1.632167075E0,1.124450207E0,-6.385068893E-1,-3.575088978E-1
1.634266960E0,1.108720422E0,-6.142250299E-1,-3.646865487E-1
1.636366366E0,1.095281363E0,-5.897904038E-1,-3.692680299E-1
1.638467186E0,1.077108145E0,-5.632177591E-1,-3.701843321E-1
1.640567395E0,1.057713151E0,-5.328271985E-1,-3.698789179E-1
1.642661644E0,1.035722017E0,-5.012149215E-1,-3.695734739E-1
1.644771009E0,1.013883591E0,-4.648684561E-1,-3.692680299E-1
1.646870548E0,9.909761548E-1,-4.295909703E-1,-3.652974069E-1
1.648973697E0,9.654725194E-1,-3.967569768E-1,-3.648392558E-1
1.651068199E0,9.436340928E-1,-3.652974069E-1,-3.596469164E-1
1.653158135E0,9.181304574E-1,-3.349068761E-1,-3.532328308E-1
1.655272871E0,8.926268220E-1,-3.106249869E-1,-3.468187451E-1
1.657373670E0,8.648324609E-1,-2.851213515E-1,-3.390302062E-1
1.659478772E0,8.405506015E-1,-2.597704530E-1,-3.326161206E-1
1.661574578E0,8.187121153E-1,-2.318233550E-1,-3.262020350E-1
1.663673740E0,7.993171811E-1,-2.014328092E-1,-3.222314119E-1
1.665775862E0,7.823656797E-1,-1.783726513E-1,-3.220787048E-1
1.667876418E0,7.701483369E-1,-1.589776874E-1,-3.254384696E-1
1.669976932E0,7.593054771E-1,-1.371392459E-1,-3.301726580E-1
1.672076999E0,7.507534027E-1,-1.151480973E-1,-3.336851299E-1
1.674175520E0,7.458664775E-1,-9.575312585E-2,-3.433062732E-1
1.676269707E0,7.444919944E-1,-7.391469181E-2,-3.506366611E-1
1.678378849E0,7.469354868E-1,-5.085453019E-2,-3.590360582E-1
1.680479628E0,7.516697049E-1,-2.779436857E-2,-3.651446998E-1
1.682583347E0,7.577783465E-1,-3.512475174E-3,-3.736968040E-1
1.684678378E0,7.686212063E-1,1.725694351E-2,-3.798054755E-1
1.686769087E0,7.796167731E-1,3.298672289E-2,-3.859141171E-1
1.688881280E0,7.929030657E-1,4.993823543E-2,-3.895792961E-1
1.690982100E0,8.049677014E-1,6.337726861E-2,-3.958406746E-1
1.693086470E0,8.208501935E-1,7.055493444E-2,-4.043927789E-1
1.695179203E0,8.365799785E-1,8.032877743E-2,-4.094324410E-1
1.697271062E0,8.535314798E-1,9.132435173E-2,-4.144720733E-1
1.699383406E0,8.729264140E-1,1.021672115E-1,-4.193589985E-1
1.701482517E0,8.898779750E-1,1.154535338E-1,-4.219551682E-1
1.703578424E0,9.094256163E-1,1.313360333E-1,-4.269948006E-1
1.705687230E0,9.312640429E-1,1.482875347E-1,-4.308127165E-1
1.707791285E0,9.518807530E-1,1.676825136E-1,-4.332561791E-1
1.709890944E0,9.712757468E-1,1.907426715E-1,-4.382958114E-1
1.711987818E0,9.918924570E-1,2.125810981E-1,-4.419609904E-1
1.714087610E0,1.011440158E0,2.331978083E-1,-4.470006526E-1
1.716188379E0,1.025948167E0,2.550362349E-1,-4.543310404E-1
1.718286707E0,1.039234519E0,2.780964077E-1,-4.630358517E-1
1.720379917E0,1.050077319E0,3.048217595E-1,-4.763221741E-1
1.722490849E0,1.058476806E0,3.315471113E-1,-4.873177409E-1
1.724591222E0,1.060920238E0,3.570507467E-1,-5.007568002E-1
1.726695114E0,1.064432740E0,3.898847401E-1,-5.128213763E-1
1.728790126E0,1.064432740E0,4.251621962E-1,-5.224425197E-1
1.730885512E0,1.060767531E0,4.590652287E-1,-5.283984542E-1
1.732993341E0,1.055880547E0,4.967861474E-1,-5.319108963E-1
1.735093714E0,1.047328472E0,5.319108963E-1,-5.316054821E-1
1.737197200E0,1.036485553E0,5.635231733E-1,-5.314527750E-1
1.739302972E0,1.021977544E0,5.939137340E-1,-5.287038684E-1
1.741410039E0,1.007469535E0,6.169738770E-1,-5.224425197E-1
1.743497024E0,9.892962575E-1,6.302602291E-1,-5.160284042E-1
1.745595200E0,9.711230397E-1,6.351471543E-1,-5.073235631E-1
1.747693802E0,9.529497623E-1,6.362161636E-1,-4.961752892E-1
1.749798904E0,9.335548282E-1,6.313292384E-1,-4.862487316E-1
1.751898779E0,9.129381180E-1,6.192646623E-1,-4.714352489E-1
1.753998897E0,8.936958313E-1,6.070473194E-1,-4.541783035E-1
1.756098831E0,8.756753206E-1,6.046038866E-1,-4.369213581E-1
1.758199967E0,8.623890281E-1,6.032294035E-1,-4.184426963E-1
1.760301163E0,8.527678847E-1,6.007859707E-1,-4.001167417E-1
1.762398321E0,8.492553830E-1,6.032294035E-1,-3.840815127E-1
1.764491064E0,8.506298661E-1,6.067419052E-1,-3.718642294E-1
1.766600103E0,8.542950749E-1,6.091853380E-1,-3.646865487E-1
1.768701320E0,8.616254330E-1,6.128505468E-1,-3.597996235E-1
1.770805557E0,8.726209998E-1,6.200281978E-1,-3.622430861E-1
1.772903774E0,8.871290684E-1,6.334672570E-1,-3.648392558E-1
1.775004339E0,9.040805697E-1,6.479753256E-1,-3.733913898E-1
1.777106309E0,9.222537875E-1,6.710354686E-1,-3.869831264E-1
1.779205278E0,9.428704977E-1,7.014260292E-1,-4.016439021E-1
1.781306321E0,9.633345008E-1,7.403686643E-1,-4.199698567E-1
1.783405921E0,9.839512110E-1,7.816020846E-1,-4.396702647E-1
1.785507188E0,1.003193498E0,8.217664957E-1,-4.592179358E-1
1.787607977E0,1.021366715E0,8.678867817E-1,-4.812090993E-1
1.789707983E0,1.034500241E0,9.201157689E-1,-5.030475259E-1
1.791808752E0,1.045343161E0,9.650143981E-1,-5.199990273E-1
1.793910102E0,1.053742528E0,1.011287451E0,-5.395467281E-1
1.796007646E0,1.058476806E0,1.056185961E0,-5.577199459E-1
1.798100033E0,1.060767531E0,1.098793864E0,-5.734497309E-1
1.800210526E0,1.059545755E0,1.137583852E0,-5.842925906E-1
1.802311407E0,1.064432740E0,1.163087368E0,-5.878050923E-1
1.804414720E0,1.075275540E0,1.174082994E0,-5.867360830E-1
1.806509650E0,1.077718973E0,1.182482362E0,-5.890268087E-1
1.808602628E0,1.058171272E0,1.205695271E0,-6.084218025E-1
1.810714800E0,1.036180139E0,1.231198907E0,-6.325509548E-1
1.812814521E0,1.021366715E0,1.256855249E0,-6.456845403E-1
1.814917447E0,1.009302139E0,1.300532103E0,-6.453791261E-1
1.817015856E0,9.899071455E-1,1.346652389E0,-6.365215778E-1
1.819116076E0,9.622654915E-1,1.379333735E0,-6.140722632E-1
1.821216814E0,9.332493544E-1,1.402241111E0,-5.893322229E-1
1.823316372E0,8.982773423E-1,1.409418821E0,-5.609270334E-1
1.825415840E0,8.608618379E-1,1.408197165E0,-5.313000679E-1
1.827517667E0,8.210029006E-1,1.395979762E0,-5.053382516E-1
1.829620307E0,7.785477638E-1,1.381319046E0,-4.792237878E-1
1.831724891E0,7.362453341E-1,1.364367485E0,-4.495968223E-1
1.833819505E0,6.914994717E-1,1.344819784E0,-4.236350358E-1
1.835920031E0,6.455318332E-1,1.322981358E0,-3.940080702E-1
1.838019264E0,5.995642543E-1,1.305877209E0,-3.656028509E-1
1.840119097E0,5.572618246E-1,1.296103358E0,-3.396410644E-1
1.842211870E0,5.174028873E-1,1.292438149E0,-3.147483170E-1
1.844323300E0,4.834998548E-1,1.294881582E0,-2.936734557E-1
1.846422646E0,4.520402849E-1,1.299615860E0,-2.762638032E-1
1.848525887E0,4.279111028E-1,1.317789078E0,-2.612976134E-1
1.850624245E0,4.097378552E-1,1.338405728E0,-2.513710558E-1
1.852725054E0,3.976732790E-1,1.362687588E0,-2.474004179E-1
1.854825773E0,3.878994286E-1,1.390634775E0,-2.472477108E-1
1.856925576E0,3.830125034E-1,1.422247052E0,-2.556470931E-1
1.859026670E0,3.828597963E-1,1.455080986E0,-2.677116990E-1
1.861127134E0,3.853032589E-1,1.493870974E0,-2.846632004E-1
1.863226275E0,3.923282027E-1,1.535257101E0,-3.077233732E-1
1.865328224E0,4.007275999E-1,1.575421453E0,-3.297145069E-1
1.867428526E0,4.103487432E-1,1.614211440E0,-3.552181423E-1
1.869529060E0,4.234823287E-1,1.655597568E0,-3.820962012E-1
1.871629199E0,4.341724813E-1,1.698205352E0,-4.101960063E-1
1.873727252E0,4.460843503E-1,1.735926270E0,-4.381431043E-1
1.875820677E0,4.581489265E-1,1.773647189E0,-4.650211632E-1
1.877932432E0,4.688390791E-1,1.811215401E0,-4.894557893E-1
1.880031564E0,4.760167301E-1,1.845271230E0,-5.137376785E-1
1.882134978E0,4.807509482E-1,1.872149229E0,-5.320636034E-1
1.884230752E0,4.867068827E-1,1.886657357E0,-5.516113043E-1
1.886322427E0,4.914411008E-1,1.893987656E0,-5.662720799E-1
1.888432749E0,4.912883639E-1,1.892918706E0,-5.772676468E-1
1.890534259E0,4.937318265E-1,1.885588288E0,-5.845980644E-1
1.892637551E0,4.948008358E-1,1.873523712E0,-5.896376967E-1
1.894733264E0,4.972442985E-1,1.858862996E0,-5.871942043E-1
1.896826079E0,4.948008358E-1,1.849241853E0,-5.847507715E-1
1.898937388E0,4.925101101E-1,1.834581017E0,-5.761986375E-1
1.901038858E0,4.900666475E-1,1.817629576E0,-5.641340613E-1
1.903140115E0,4.877758920E-1,1.802968740E0,-5.482515693E-1
1.905238056E0,4.867068827E-1,1.784642816E0,-5.274821520E-1
1.907338398E0,4.845688641E-1,1.769982100E0,-5.032002330E-1
1.909440215E0,4.834998548E-1,1.751808763E0,-4.751004577E-1
1.911540994E0,4.838052690E-1,1.733482838E0,-4.447098970E-1
1.913640939E0,4.876231849E-1,1.713935137E0,-4.117231667E-1
1.915740935E0,4.928155243E-1,1.701565146E0,-3.764457107E-1
1.917838775E0,4.992296100E-1,1.684460878E0,-3.436116874E-1
1.919932209E0,5.030475259E-1,1.671021819E0,-3.130684495E-1
1.922042999E0,5.129740834E-1,1.662469745E0,-2.826778889E-1
1.924143198E0,5.216789246E-1,1.653764963E0,-2.559525371E-1
1.926246358E0,5.328271985E-1,1.647656322E0,-2.302961946E-1
1.928344207E0,5.439754725E-1,1.641547680E0,-2.109012306E-1
1.930441385E0,5.600107312E-1,1.640173197E0,-1.890627891E-1
1.932545725E0,5.734497309E-1,1.642463923E0,-1.733330190E-1
1.934645508E0,5.881105065E-1,1.647350907E0,-1.600466967E-1
1.936747213E0,6.052147150E-1,1.654528499E0,-1.527163088E-1
1.938847372E0,6.223189831E-1,1.666593075E0,-1.467603743E-1
1.940949778E0,6.369797587E-1,1.678810358E0,-1.444696337E-1
1.943048604E0,6.539312601E-1,1.685988069E0,-1.456913650E-1
1.945149556E0,6.672175527E-1,1.693318486E0,-1.519527286E-1
1.947248749E0,6.794348955E-1,1.703092337E0,-1.592831165E-1
1.949350565E0,6.878342628E-1,1.709200978E0,-1.740965992E-1
1.951449116E0,6.986771226E-1,1.716531396E0,-1.875356287E-1
1.953540415E0,7.034113407E-1,1.722640038E0,-2.034181207E-1
1.955649771E0,7.020368576E-1,1.727526903E0,-2.229658216E-1
1.957750346E0,6.980662346E-1,1.738522530E0,-2.474004179E-1
1.959855407E0,6.905831695E-1,1.756848454E0,-2.716823220E-1
1.961953420E0,6.818783283E-1,1.778839588E0,-2.984076738E-1
1.964050395E0,6.696610451E-1,1.805565000E0,-3.225368559E-1
1.966154145E0,6.548475623E-1,1.827556133E0,-3.468187451E-1
1.968254884E0,6.363688707E-1,1.840995073E0,-3.697261810E-1
1.970356008E0,6.180428863E-1,1.849547267E0,-3.927863538E-1
1.972455811E0,5.995642543E-1,1.859321117E0,-4.121813178E-1
1.974556692E0,5.824599862E-1,1.866804242E0,-4.291328490E-1
1.976657594E0,5.641340613E-1,1.874134541E0,-4.422664344E-1
1.978758454E0,5.482515693E-1,1.881464958E0,-4.531092942E-1
1.980857870E0,5.348125100E-1,1.890017033E0,-4.590652287E-1
1.982958375E0,5.213735104E-1,1.893682241E0,-4.625777006E-1
1.985058859E0,5.093088746E-1,1.886351824E0,-4.613559842E-1
1.987160158E0,5.007568002E-1,1.876578093E0,-4.589125216E-1
1.989260154E0,4.911356568E-1,1.859626532E0,-4.528038502E-1
1.991360901E0,4.825835526E-1,1.836566329E0,-4.442517459E-1
1.993461427E0,4.754058719E-1,1.808619261E0,-4.308127165E-1
1.995559469E0,4.670064747E-1,1.783115625E0,-4.149302244E-1
1.997647147E0,4.610505402E-1,1.758681059E0,-3.953825235E-1
1.999763571E0,4.564690590E-1,1.735620856E0,-3.735440969E-1
2.001860607E0,4.554000497E-1,1.711186290E0,-3.478877544E-1
2.003955629E0,4.506658316E-1,1.688126087E0,-3.211624026E-1
2.006057446E0,4.460843503E-1,1.666134953E0,-2.942843437E-1
2.008176496E0,4.425718784E-1,1.644296527E0,-2.710714638E-1
2.010268668E0,4.353941977E-1,1.621083617E0,-2.490803003E-1
2.012367311E0,4.308127165E-1,1.605201125E0,-2.284636050E-1
2.014454225E0,4.211915731E-1,1.593136549E0,-2.136501223E-1
2.016562960E0,4.115704596E-1,1.582141042E0,-2.002110779E-1
2.018653821E0,3.958406746E-1,1.577254057E0,-1.939497143E-1
2.020771151E0,3.752239645E-1,1.579697490E0,-1.864666194E-1
2.022869142E0,3.546072841E-1,1.585806131E0,-1.838704348E-1
2.024972923E0,3.327688277E-1,1.595427275E0,-1.786780804E-1
2.027070193E0,3.121521473E-1,1.607644558E0,-1.710422635E-1
2.029172976E0,2.805398703E-1,1.617265701E0,-1.707368344E-1
2.031276918E0,2.415972054E-1,1.629482985E0,-1.814269722E-1
2.033372184E0,2.025018334E-1,1.653917670E0,-1.956295967E-1
2.035472058E0,1.623374373E-1,1.690416813E0,-2.171625942E-1
2.037571393E0,1.146899462E-1,1.728137732E0,-2.397646159E-1
2.039670107E0,6.352998316E-2,1.764789701E0,-2.635883391E-1
2.041760856E0,7.483099122E-3,1.798845410E0,-2.886338234E-1
2.043874677E0,-5.115996301E-2,1.829388738E0,-3.123048544E-1
2.045976148E0,-1.059851199E-1,1.862222672E0,-3.300199509E-1
2.048079451E0,-1.655444801E-1,1.899943590E0,-3.452915847E-1
2.050172131E0,-2.240348309E-1,1.940108061E0,-3.543018401E-1
2.052258496E0,-2.774855494E-1,1.983784914E0,-3.585779071E-1
2.054377353E0,-3.297145069E-1,2.026392698E0,-3.604104817E-1
2.056477654E0,-3.758348525E-1,2.059226751E0,-3.597996235E-1
2.058583194E0,-4.207334518E-1,2.074956417E0,-3.532328308E-1
2.060676435E0,-4.584543705E-1,2.074956417E0,-3.455969989E-1
2.062770297E0,-4.911356568E-1,2.062891960E0,-3.355177343E-1
2.064880201E0,-5.213735104E-1,2.042122602E0,-3.231477141E-1
2.066980665E0,-5.517640114E-1,2.011884689E0,-3.083342314E-1
2.069083387E0,-5.795583725E-1,1.976607203E0,-2.947424948E-1
2.071181562E0,-6.026185751E-1,1.946216702E0,-2.800817192E-1
2.073279503E0,-6.230825782E-1,1.914604425E0,-2.628247738E-1
2.075372643E0,-6.424775124E-1,1.883144855E0,-2.444988191E-1
2.077483941E0,-6.580545902E-1,1.852754235E0,-2.261728644E-1
2.079584821E0,-6.701191664E-1,1.824654460E0,-2.102903575E-1
2.081686852E0,-6.821837425E-1,1.801594377E0,-1.956295967E-1
2.083784050E0,-6.918048859E-1,1.779755950E0,-1.834122837E-1
2.085881881E0,-7.015787363E-1,1.756695747E0,-1.736384481E-1
2.087985050E0,-7.099781036E-1,1.743256688E0,-1.663080603E-1
2.090086683E0,-7.197519541E-1,1.731192112E0,-1.626428664E-1
2.092186151E0,-7.244861722E-1,1.728748679E0,-1.576032341E-1
2.094281732E0,-7.293730974E-1,1.731192112E0,-1.527163088E-1
2.096391290E0,-7.292203903E-1,1.742034912E0,-1.466076523E-1
2.098489343E0,-7.267768979E-1,1.758986473E0,-1.391245574E-1
2.100590976E0,-7.194465399E-1,1.777159691E0,-1.330159009E-1
2.102689152E0,-7.096726894E-1,1.791667819E0,-1.270599663E-1
2.104790460E0,-6.986771226E-1,1.804954052E0,-1.209513173E-1
2.106890985E0,-6.864598393E-1,1.815949678E0,-1.148426682E-1
2.108991826E0,-6.730207801E-1,1.815796971E0,-1.101084575E-1
2.111092278E0,-6.608034968E-1,1.808619261E0,-1.065959856E-1
2.113194024E0,-6.498079300E-1,1.796401978E0,-1.018617824E-1
2.115293074E0,-6.400340796E-1,1.774563551E0,-9.590584040E-2
2.117391658E0,-6.327036619E-1,1.745394707E0,-8.872817457E-2
2.119481765E0,-6.253733039E-1,1.708895564E0,-7.925976813E-2
2.121585097E0,-6.119342446E-1,1.667509437E0,-6.123924255E-2
2.123695306E0,-6.093381047E-1,1.608102798E0,-4.550946131E-2
2.125798263E0,-6.166684628E-1,1.547321677E0,-4.199698567E-2
2.127896591E0,-6.192646623E-1,1.502575755E0,-4.596760869E-2
2.129987909E0,-6.204863787E-1,1.477072120E0,-4.963280261E-2
2.132098149E0,-6.229298115E-1,1.456455469E0,-5.222897977E-2
2.134197952E0,-6.265950203E-1,1.439503908E0,-5.589416996E-2
2.136300847E0,-6.327036619E-1,1.410335183E0,-6.078109145E-2
2.138399043E0,-6.389650702E-1,1.376432061E0,-6.826419383E-2
2.140500188E0,-6.487388611E-1,1.347263336E0,-7.315111160E-2
2.142600417E0,-6.597344875E-1,1.326799273E0,-7.559457421E-2
2.144700281E0,-6.695083380E-1,1.319468975E0,-7.803803682E-2
2.146800786E0,-6.803511381E-1,1.319468975E0,-7.788532227E-2
2.148901037E0,-6.901249886E-1,1.328021049E0,-8.139779419E-2
2.151000310E0,-6.950119138E-1,1.341307402E0,-8.261952549E-2
2.153093999E0,-6.998988390E-1,1.352302909E0,-8.124507964E-2
2.155203761E0,-7.009678483E-1,1.360702276E0,-7.880161703E-2
2.157304276E0,-7.058547735E-1,1.363145828E0,-7.376197726E-2
2.159407486E0,-7.070765495E-1,1.361924052E0,-7.009678334E-2
2.161508204E0,-7.070765495E-1,1.354593635E0,-6.643159688E-2
2.163617691E0,-7.081455588E-1,1.342529058E0,-6.291911751E-2
2.165702469E0,-7.093672752E-1,1.324355841E0,-5.925392732E-2
2.167788946E0,-7.118107080E-1,1.302364707E0,-5.574145541E-2
2.169894832E0,-7.166976333E-1,1.280526280E0,-4.963280261E-2
2.172008042E0,-7.202101350E-1,1.261131287E0,-4.596760869E-2
2.174112401E0,-7.250970602E-1,1.245401502E0,-3.863722831E-2
2.176212062E0,-7.273877859E-1,1.228297234E0,-2.901609987E-2
2.178309840E0,-7.334964275E-1,1.212567568E0,-1.679879427E-2
2.180411352E0,-7.370089293E-1,1.194241524E0,-4.581489135E-3
2.182510575E0,-7.417431474E-1,1.179733515E0,8.857546374E-3
2.184608720E0,-7.501425147E-1,1.163851023E0,2.474004216E-2
2.186701290E0,-7.597636580E-1,1.151633739E0,4.062253982E-2
2.188812282E0,-7.706065178E-1,1.139416456E0,5.543602258E-2
2.190912929E0,-7.851145267E-1,1.127351761E0,7.254024595E-2
2.193016068E0,-8.006916046E-1,1.112691045E0,8.857546002E-2
2.195112179E0,-8.188648820E-1,1.104138970E0,1.070541367E-1
2.197205410E0,-8.393288255E-1,1.093143344E0,1.267545372E-1
2.199315201E0,-8.597928286E-1,1.078635335E0,1.463022232E-1
2.201412563E0,-8.827002645E-1,1.062752843E0,1.660026312E-1
2.203504503E0,-9.069821835E-1,1.044426799E0,1.857030392E-1
2.205614987E0,-9.286679029E-1,1.022588372E0,2.066251636E-1
2.207716031E0,-9.503536224E-1,9.921978712E-1,2.249511331E-1
2.209821621E0,-9.709703326E-1,9.630290866E-1,2.422080636E-1
2.211919145E0,-9.926560521E-1,9.326385260E-1,2.568688393E-1
2.214020789E0,-1.009607553E0,9.010262489E-1,2.704605758E-1
2.216119727E0,-1.025337338E0,8.683449626E-1,2.826778889E-1
2.218221870E0,-1.039845347E0,8.379544020E-1,2.912299931E-1
2.220321652E0,-1.049619198E0,8.087855577E-1,2.984076738E-1
2.222421607E0,-1.056949615E0,7.808384895E-1,3.032945991E-1
2.224521267E0,-1.060614824E0,7.518224120E-1,3.032945991E-1
2.226621945E0,-1.060614824E0,7.263187766E-1,3.031418920E-1
2.228720334E0,-1.058171272E0,7.032586336E-1,2.968805134E-1
2.230814287E0,-1.054658890E0,6.814202070E-1,2.881756723E-1
2.232923866E0,-1.053589821E0,6.560692787E-1,2.770273983E-1
2.235024412E0,-1.051299095E0,6.366742849E-1,2.648100853E-1
2.237123655E0,-1.047786593E0,6.270532012E-1,2.451096773E-1
2.239211190E0,-1.049161077E0,6.209445000E-1,2.280054539E-1
2.241326270E0,-1.048092008E0,6.162103415E-1,2.047925740E-1
2.243426907E0,-1.050688267E0,6.235406995E-1,1.815796942E-1
2.245531207E0,-1.056949615E0,6.334672570E-1,1.585195363E-1
2.247629464E0,-1.064432740E0,6.493497491E-1,1.330159009E-1
2.249731188E0,-1.073137522E0,6.675229669E-1,1.111774743E-1
2.251838916E0,-1.081842303E0,6.944010854E-1,9.056077152E-2
2.253929136E0,-1.094059706E0,7.199047208E-1,7.605272532E-2
2.256030088E0,-1.106276989E0,7.382306457E-1,6.276640296E-2
2.258125913E0,-1.118494272E0,7.551821470E-1,5.696318299E-2
2.260221077E0,-1.134376764E0,7.612907887E-1,4.978551716E-2
2.262332120E0,-1.145219564E0,7.649559975E-1,4.978551716E-2
2.264433418E0,-1.161102057E0,7.528914213E-1,5.238169432E-2
2.266535297E0,-1.175610185E0,7.382306457E-1,5.864306539E-2
2.268633747E0,-1.186452985E0,7.163922191E-1,7.208210230E-2
2.270733376E0,-1.200961113E0,6.811147332E-1,8.781187981E-2
2.272831795E0,-1.209360480E0,6.433938146E-1,1.122464910E-1
2.274924660E0,-1.217607141E0,5.997169614E-1,1.414152980E-1
2.277034219E0,-1.225853801E0,5.510004759E-1,1.707368344E-1
2.279134967E0,-1.229213595E0,5.012149215E-1,2.070833147E-1
2.281239947E0,-1.233947754E0,4.463897645E-1,2.423607856E-1
2.283337085E0,-1.233642340E0,3.880521357E-1,2.800817192E-1
2.285437458E0,-1.230893493E0,3.297145069E-1,3.176499307E-1
2.287539163E0,-1.225853801E0,2.736676335E-1,3.527746797E-1
2.289638680E0,-1.220661521E0,2.189951837E-1,3.856086731E-1
2.291739378E0,-1.214400053E0,1.715004146E-1,4.170682430E-1
2.293839445E0,-1.205695271E0,1.276708394E-1,4.448626041E-1
2.295940754E0,-1.195768714E0,9.239336848E-2,4.703662395E-1
2.298042245E0,-1.189507365E0,6.200282276E-2,4.897612035E-1
2.300141345E0,-1.187063932E0,3.649919853E-2,5.067127347E-1
2.302242064E0,-1.185689449E0,9.773843922E-3,5.163338780E-1
2.304342650E0,-1.193019867E0,-1.084285788E-2,5.212207437E-1
2.306440663E0,-1.201571941E0,-2.061670274E-2,5.212207437E-1
2.308533955E0,-1.213789225E0,-2.657263726E-2,5.164865851E-1
2.310644133E0,-1.230740786E0,-3.023782931E-2,5.093088746E-1
2.312745401E0,-1.241736293E0,-3.390302137E-2,5.080871582E-1
2.314848703E0,-1.255175352E0,-4.352414981E-2,5.033529401E-1
2.316947459E0,-1.271057844E0,-5.436700583E-2,4.862487316E-1
2.319052958E0,-1.278540969E0,-5.787948146E-2,4.668537676E-1
2.321146870E0,-1.279915452E0,-5.299255997E-2,4.448626041E-1
2.323245442E0,-1.276555657E0,-4.199698567E-2,4.216497242E-1
2.325336140E0,-1.273043156E0,-3.466660157E-2,3.972151279E-1
2.327448720E0,-1.262353063E0,-2.733621933E-2,3.762930036E-1
2.329549814E0,-1.250288486E0,-1.756237634E-2,3.555235863E-1
2.331653838E0,-1.238223910E0,1.985311974E-3,3.384193480E-1
2.333749939E0,-1.226159215E0,2.871066704E-2,3.249803185E-1
2.335849182E0,-1.214094639E0,5.665775016E-2,3.164281845E-1
2.337951793E0,-1.200808406E0,8.689557761E-2,3.115412891E-1
2.340059031E0,-1.188591003E0,1.148426682E-1,3.103195429E-1
2.342153137E0,-1.176373720E0,1.293507218E-1,3.138320148E-1
2.344253224E0,-1.167821646E0,1.305724531E-1,3.187189400E-1
2.346352041E0,-1.165378213E0,1.256855279E-1,3.236058652E-1
2.348455068E0,-1.167821646E0,1.099557430E-1,3.283400834E-1
2.350552306E0,-1.174999356E0,9.407325089E-2,3.356704414E-1
2.352645792E0,-1.188285589E0,7.834346592E-2,3.455969989E-1
2.354756348E0,-1.204015374E0,6.368270516E-2,3.541491330E-1
2.356856354E0,-1.220966935E0,4.673119262E-2,3.701843321E-1
2.358959656E0,-1.241583586E0,2.840523422E-2,3.862195611E-1
2.361059204E0,-1.254717231E0,4.581489484E-4,4.033237696E-1
2.363166525E0,-1.268003583E0,-2.993239649E-2,4.216497242E-1
2.365259755E0,-1.276402950E0,-6.383541971E-2,4.410447180E-1
2.367359569E0,-1.282358885E0,-1.088867337E-1,4.567744732E-1
2.369457835E0,-1.280984402E0,-1.562287807E-1,4.725042582E-1
2.371559266E0,-1.274875760E0,-1.999056488E-1,4.833471179E-1
2.373658468E0,-1.265101910E0,-2.412917763E-1,4.928155243E-1
2.375761536E0,-1.249372125E0,-2.837468982E-1,4.986187518E-1
2.377862254E0,-1.233489633E0,-3.202461004E-1,4.983133376E-1
2.379963124E0,-1.213025689E0,-3.517056704E-1,4.931209683E-1
2.382063752E0,-1.192408919E0,-3.784310222E-1,4.842634201E-1
2.384162009E0,-1.173014045E0,-4.002694488E-1,4.680754840E-1
2.386258882E0,-1.154993415E0,-4.172209501E-1,4.483750761E-1
2.388364239E0,-1.135751247E0,-4.219551682E-1,4.260784984E-1
2.390465037E0,-1.117730737E0,-4.279111028E-1,4.002694488E-1
2.392566997E0,-1.099710107E0,-4.338670373E-1,3.756821156E-1
2.394669476E0,-1.084133148E0,-4.375322461E-1,3.486513495E-1
2.396778403E0,-1.073442936E0,-4.459316432E-1,3.228422701E-1
2.398868267E0,-1.066418052E0,-4.566217661E-1,2.933680415E-1
2.400967662E0,-1.062905550E0,-4.711298347E-1,2.663372457E-1
2.403065055E0,-1.065654397E0,-4.807509482E-1,2.382374406E-1
2.405167482E0,-1.078024387E0,-4.830417037E-1,2.115120888E-1
2.407270113E0,-1.095281363E0,-4.793764949E-1,1.847867370E-1
2.409368968E0,-1.117425203E0,-4.767803252E-1,1.592831165E-1
2.411470928E0,-1.143081546E0,-4.705189466E-1,1.388191283E-1
2.413571493E0,-1.169959664E0,-4.631885588E-1,1.220203340E-1
2.415670351E0,-1.201571941E0,-4.570799172E-1,1.101084575E-1
2.417762189E0,-1.235780358E0,-4.581489265E-1,9.941831976E-2
2.419873597E0,-1.268614411E0,-4.630358517E-1,9.346238524E-2
2.421974540E0,-1.303891897E0,-4.714352489E-1,9.010262042E-2
2.424076336E0,-1.341612816E0,-4.834998548E-1,9.285151958E-2
2.426174227E0,-1.376737595E0,-5.053382516E-1,9.682214260E-2
2.428271954E0,-1.410793304E0,-5.308418870E-1,1.055269688E-1
2.430365622E0,-1.444696307E0,-5.587889552E-1,1.166752651E-1
2.432477571E0,-1.473865151E0,-5.891795158E-1,1.290452778E-1
2.434577089E0,-1.495703578E0,-6.316346526E-1,1.412625909E-1
2.436679608E0,-1.514945865E0,-6.740897894E-1,1.534798890E-1
2.438777001E0,-1.534493446E0,-7.118107080E-1,1.608102769E-1
2.440877250E0,-1.541671157E0,-7.530441284E-1,1.669189334E-1
2.442979565E0,-1.549001575E0,-7.954992652E-1,1.679879427E-1
2.445079307E0,-1.552666783E0,-8.281805515E-1,1.678352207E-1
2.447180514E0,-1.556331873E0,-8.475755453E-1,1.641700417E-1
2.449281832E0,-1.551597714E0,-8.645270467E-1,1.591303945E-1
2.451381492E0,-1.544420004E0,-8.828529716E-1,1.528690308E-1
2.453481976E0,-1.534646153E0,-8.973610401E-1,1.429424733E-1
2.455581759E0,-1.520290852E0,-9.106473923E-1,1.281289905E-1
2.457682509E0,-1.505782843E0,-9.275988936E-1,1.133155003E-1
2.459783063E0,-1.488983989E0,-9.517280459E-1,9.224065393E-2
2.461881147E0,-1.466076612E0,-9.699012637E-1,6.872233748E-2
2.463974266E0,-1.443321824E0,-9.807441235E-1,3.924809024E-2
2.466084303E0,-1.420414448E0,-9.891435504E-1,5.955935922E-3
2.468184176E0,-1.400103092E0,-9.987646937E-1,-3.222314268E-2
2.470288607E0,-1.377348423E0,-1.003498912E0,-7.391469181E-2
2.472383955E0,-1.358258843E0,-1.004415154E0,-1.192714423E-1
2.474477135E0,-1.339169383E0,-1.009149432E0,-1.647808999E-1
2.476587619E0,-1.322523236E0,-1.018770456E0,-2.101376504E-1
2.478688093E0,-1.307251573E0,-1.025795460E0,-2.579378486E-1
2.480791507E0,-1.295492411E0,-1.029307961E0,-3.045163155E-1
2.482893619E0,-1.288467526E0,-1.035263896E0,-3.486513495E-1
2.485002668E0,-1.289994717E0,-1.043510556E0,-3.901901841E-1
2.487091028E0,-1.291521788E0,-1.049466491E0,-4.268420935E-1
2.489191563E0,-1.299157619E0,-1.052978992E0,-4.622722864E-1
2.491288180E0,-1.306640744E0,-1.056491494E0,-4.914411008E-1
2.493392011E0,-1.320385218E0,-1.063669086E0,-5.183191895E-1
2.495492862E0,-1.335045934E0,-1.069625020E0,-5.401576161E-1
2.497593673E0,-1.349859476E0,-1.067181587E0,-5.571091175E-1
2.499694593E0,-1.364520192E0,-1.061072946E0,-5.716171265E-1
2.501791548E0,-1.382846236E0,-1.057255030E0,-5.800165534E-1
2.503882409E0,-1.402393937E0,-1.054811597E0,-5.884159207E-1
2.505982985E0,-1.423010588E0,-1.051146388E0,-5.966626406E-1
2.508085850E0,-1.445001721E0,-1.047481179E0,-6.001750827E-1
2.510199110E0,-1.465618491E0,-1.048702955E0,-6.024658680E-1
2.512296706E0,-1.486387849E0,-1.055880547E0,-6.035348773E-1
2.514390558E0,-1.505782843E0,-1.057102323E0,-5.997169614E-1
2.516498174E0,-1.519069195E0,-1.055880547E0,-5.934556127E-1
2.518593185E0,-1.528690219E0,-1.059545755E0,-5.847507715E-1
2.520701918E0,-1.532355428E0,-1.061989188E0,-5.749769211E-1
2.522799279E0,-1.527315855E0,-1.065654397E0,-5.641340613E-1
2.524899836E0,-1.512655020E0,-1.077871680E0,-5.569564104E-1
2.526996841E0,-1.490816593E0,-1.101084590E0,-5.487096906E-1
2.529088516E0,-1.461647868E0,-1.130253434E0,-5.441282392E-1
2.531192509E0,-1.425148606E0,-1.154535294E0,-5.421429276E-1
2.533303665E0,-1.381319046E0,-1.181260705E0,-5.401576161E-1
2.535405614E0,-1.332755208E0,-1.211651206E0,-5.407684445E-1
2.537506434E0,-1.280526280E0,-1.243263483E0,-5.438227654E-1
2.539604832E0,-1.218523502E0,-1.271210551E0,-5.432119370E-1
2.541706435E0,-1.156673312E0,-1.296714187E0,-5.451972485E-1
2.543805058E0,-1.089783549E0,-1.329548240E0,-5.433646441E-1
2.545905614E0,-1.020450354E0,-1.364825726E0,-5.392413139E-1
2.548006170E0,-9.463829994E-1,-1.395216227E0,-5.340489149E-1
2.550108210E0,-8.672759533E-1,-1.429271936E0,-5.274821520E-1
2.552206924E0,-7.893906236E-1,-1.468214631E0,-5.210680366E-1
2.554308121E0,-7.104362845E-1,-1.507157326E0,-5.169447064E-1
2.556409104E0,-6.302602291E-1,-1.538769603E0,-5.129740834E-1
2.558509527E0,-5.487096906E-1,-1.564425945E0,-5.076290369E-1
2.560609624E0,-4.734205604E-1,-1.594816446E0,-5.048801303E-1
2.562710423E0,-4.028656185E-1,-1.619251013E0,-5.018258095E-1
2.564811488E0,-3.371976018E-1,-1.632690072E0,-4.989241958E-1
2.566912176E0,-2.788599730E-1,-1.642463923E0,-4.969388843E-1
2.569011582E0,-2.290744632E-1,-1.653306842E0,-4.951062799E-1
2.571109461E0,-1.876883507E-1,-1.659415483E0,-4.929682612E-1
2.573202622E0,-1.536326110E-1,-1.654681206E0,-4.944954216E-1
2.575314072E0,-1.281289905E-1,-1.648572564E0,-4.922046661E-1
2.577414079E0,-1.110247597E-1,-1.641394973E0,-4.923573732E-1
2.579516993E0,-1.001819000E-1,-1.636507988E0,-4.937318265E-1
2.581615067E0,-9.773843735E-2,-1.624443412E0,-4.960225821E-1
2.583714046E0,-1.014036313E-1,-1.606117487E0,-4.984660447E-1
2.585806077E0,-1.099557430E-1,-1.595274568E0,-4.995350540E-1
2.587919196E0,-1.244637966E-1,-1.579392076E0,-4.993823469E-1
2.590025019E0,-1.426370293E-1,-1.561218858E0,-5.015203953E-1
2.592110052E0,-1.646281779E-1,-1.545489073E0,-5.024366379E-1
2.594214178E0,-1.913535446E-1,-1.535715222E0,-5.035057068E-1
2.596310227E0,-2.180788964E-1,-1.534493446E0,-4.995350540E-1
2.598421220E0,-2.472477108E-1,-1.535715222E0,-4.955644310E-1
2.600521867E0,-2.787072659E-1,-1.545336366E0,-4.893030524E-1
2.602621751E0,-3.090978265E-1,-1.557553649E0,-4.816672504E-1
2.604720435E0,-3.394883573E-1,-1.568396568E0,-4.754058719E-1
2.606821397E0,-3.648392558E-1,-1.579239368E0,-4.691445231E-1
2.608922380E0,-3.903428912E-1,-1.590234995E0,-4.615086913E-1
2.611022986E0,-4.121813178E-1,-1.603521228E0,-4.589125216E-1
2.613123724E0,-4.292855561E-1,-1.616960287E0,-4.564690590E-1
2.615224036E0,-4.425718784E-1,-1.627803206E0,-4.563163519E-1
2.617325518E0,-4.511239827E-1,-1.637577057E0,-4.550946057E-1
2.619422563E0,-4.535674453E-1,-1.647198081E0,-4.587597847E-1
2.621515611E0,-4.511239827E-1,-1.653306842E0,-4.625777006E-1
2.623626797E0,-4.427245855E-1,-1.655597568E0,-4.711298347E-1
2.625726925E0,-4.343251884E-1,-1.653154016E0,-4.798346460E-1
2.627827563E0,-4.210388660E-1,-1.656819224E0,-4.871650338E-1
2.629917334E0,-4.040873647E-1,-1.656819224E0,-4.934264123E-1
2.632028826E0,-3.859141171E-1,-1.655597568E0,-5.021312237E-1
2.634129697E0,-3.677408695E-1,-1.653154016E0,-5.096143484E-1
2.636231778E0,-3.446807265E-1,-1.654375792E0,-5.160284042E-1
2.638333280E0,-3.216205537E-1,-1.660484433E0,-5.210680366E-1
2.640444495E0,-2.948952019E-1,-1.664149642E0,-5.274821520E-1
2.642531399E0,-2.657263875E-1,-1.664149642E0,-5.314527750E-1
2.644631416E0,-2.330450863E-1,-1.669036508E0,-5.366451144E-1
2.646729632E0,-2.014328092E-1,-1.675145268E0,-5.369505286E-1
2.648836342E0,-1.698205322E-1,-1.675145268E0,-5.396994352E-1
2.650929644E0,-1.394299865E-1,-1.671480060E0,-5.398521423E-1
2.653033617E0,-1.102611795E-1,-1.672701716E0,-5.413793325E-1
2.655131295E0,-8.353582025E-2,-1.673923492E0,-5.392413139E-1
2.657234108E0,-5.925392732E-2,-1.674076200E0,-5.369505286E-1
2.659334032E0,-3.497203439E-2,-1.674076200E0,-5.360342264E-1
2.661436205E0,-1.420261711E-2,-1.683850050E0,-5.313000679E-1
2.663537147E0,2.748893574E-3,-1.700801611E0,-5.291619897E-1
2.665637540E0,2.107485011E-2,-1.721418262E0,-5.293147564E-1
2.667739022E0,3.436116874E-2,-1.738522530E0,-5.282457471E-1
2.669837939E0,4.535674304E-2,-1.756695747E0,-5.285511613E-1
2.671941912E0,5.619960278E-2,-1.777312398E0,-5.299255848E-1
2.674051278E0,6.841690838E-2,-1.799150825E0,-5.313000679E-1
2.676140134E0,8.048149943E-2,-1.814880610E0,-5.338962078E-1
2.678240182E0,9.621127695E-2,-1.829541445E0,-5.340489149E-1
2.680337685E0,1.108720452E-1,-1.845271230E0,-5.367978215E-1
2.682437193E0,1.266018152E-1,-1.858557463E0,-5.406157374E-1
2.684526283E0,1.423316002E-1,-1.868331313E0,-5.456553698E-1
2.686642912E0,1.580613852E-1,-1.874439955E0,-5.531384945E-1
2.688743193E0,1.701259762E-1,-1.874287248E0,-5.606215596E-1
2.690848478E0,1.846340150E-1,-1.870622039E0,-5.717698932E-1
2.692941394E0,1.907426715E-1,-1.862222672E0,-5.815436840E-1
2.695034636E0,2.003637999E-1,-1.851227164E0,-5.900958180E-1
2.697145232E0,2.075414658E-1,-1.835497379E0,-5.974262357E-1
2.699245929E0,2.173153162E-1,-1.815949678E0,-6.035348773E-1
2.701349872E0,2.293798923E-1,-1.801441550E0,-6.073527932E-1
2.703447295E0,2.391537428E-1,-1.784490108E0,-6.097962260E-1
2.705545419E0,2.487748712E-1,-1.762651682E0,-6.134614348E-1
2.707637928E0,2.609921694E-1,-1.738369823E0,-6.110179424E-1
2.709748310E0,2.719877362E-1,-1.716531396E0,-6.122397184E-1
2.711848916E0,2.817615867E-1,-1.695914626E0,-6.122397184E-1
2.713952544E0,2.901609838E-1,-1.672854424E0,-6.122397184E-1
2.716048990E0,2.974913716E-1,-1.649794340E0,-6.097962260E-1
2.718145507E0,3.048217595E-1,-1.632842779E0,-6.084218025E-1
2.720251300E0,3.110831380E-1,-1.620778203E0,-6.024658680E-1
2.722352375E0,3.171917796E-1,-1.606270194E0,-5.974262357E-1
2.724453816E0,3.257438838E-1,-1.590540409E0,-5.902485251E-1
2.726551259E0,3.306308091E-1,-1.584431767E0,-5.829181671E-1
2.728649566E0,3.367394805E-1,-1.584431767E0,-5.780312419E-1
2.730743896E0,3.416263759E-1,-1.582141042E0,-5.707008839E-1
2.732854970E0,3.466660380E-1,-1.583362699E0,-5.659666657E-1
2.734956329E0,3.515529633E-1,-1.589471340E0,-5.586362481E-1
2.737058085E0,3.491095006E-1,-1.600314260E0,-5.549710989E-1
2.739154439E0,3.466660380E-1,-1.607644558E0,-5.488623977E-1
2.741247660E0,3.407101035E-1,-1.614974976E0,-5.451972485E-1
2.743357239E0,3.297145069E-1,-1.623374343E0,-5.427537560E-1
2.745457733E0,3.152064681E-1,-1.634369969E0,-5.413793325E-1
2.747558197E0,2.993239760E-1,-1.640325904E0,-5.412266254E-1
2.749648263E0,2.848159075E-1,-1.645212770E0,-5.424483418E-1
2.751757649E0,2.701551616E-1,-1.654833913E0,-5.447390676E-1
2.753860127E0,2.579378486E-1,-1.665829539E0,-5.459607840E-1
2.755965261E0,2.518292069E-1,-1.673159957E0,-5.445863605E-1
2.758070313E0,2.506074607E-1,-1.682780981E0,-5.447390676E-1
2.760159087E0,2.506074607E-1,-1.692554832E0,-5.459607840E-1
2.762252329E0,2.554943860E-1,-1.700954318E0,-5.484042764E-1
2.764360758E0,2.616030276E-1,-1.703397751E0,-5.522221923E-1
2.766463705E0,2.724458873E-1,-1.700954318E0,-5.571091175E-1
2.768567943E0,2.857322097E-1,-1.694845676E0,-5.633704662E-1
2.770664429E0,3.039054573E-1,-1.682780981E0,-5.696318150E-1
2.772765503E0,3.245221674E-1,-1.668120265E0,-5.771149397E-1
2.774865865E0,3.488040566E-1,-1.651168704E0,-5.809328556E-1
2.776966452E0,3.767511547E-1,-1.632995486E0,-5.871942043E-1
2.779066397E0,4.046982229E-1,-1.613600492E0,-5.922338367E-1
2.781166860E0,4.375322461E-1,-1.596649051E0,-5.997169614E-1
2.783265951E0,4.677700698E-1,-1.577254057E0,-6.061310172E-1
2.785361492E0,5.030475259E-1,-1.556637406E0,-6.111706495E-1
2.787467683E0,5.346598029E-1,-1.536020637E0,-6.149885654E-1
2.789568237E0,5.673410892E-1,-1.515403986E0,-6.201809645E-1
2.791671540E0,6.013968587E-1,-1.491122007E0,-6.215553880E-1
2.793773408E0,6.317873597E-1,-1.468061924E0,-6.229298115E-1
2.795882529E0,6.611089110E-1,-1.442710996E0,-6.206390858E-1
2.797971579E0,6.914994717E-1,-1.407586217E0,-6.195700765E-1
2.800072306E0,7.194465399E-1,-1.368796349E0,-6.148358583E-1
2.802170858E0,7.451028824E-1,-1.327562928E0,-6.099489331E-1
2.804273581E0,7.646505833E-1,-1.289994717E0,-6.050620079E-1
2.806373953E0,7.854200006E-1,-1.252426505E0,-5.989533663E-1
2.808474235E0,8.023715019E-1,-1.219592452E0,-5.940664411E-1
2.810574789E0,8.145887852E-1,-1.190576315E0,-5.916230083E-1
2.812675803E0,8.243626356E-1,-1.163851023E0,-5.891795158E-1
2.814776154E0,8.268061280E-1,-1.143234253E0,-5.891795158E-1
2.816876843E0,8.281805515E-1,-1.121395826E0,-5.865833759E-1
2.818978375E0,8.232936263E-1,-1.099557400E0,-5.864306092E-1
2.821078136E0,8.171849847E-1,-1.080162525E0,-5.838344693E-1
2.823178865E0,8.087855577E-1,-1.063210964E0,-5.801692605E-1
2.825279359E0,7.979426980E-1,-1.041372538E0,-5.725334287E-1
2.827376721E0,7.834346890E-1,-1.019534111E0,-5.638286471E-1
2.829469738E0,7.713701129E-1,-1.002582550E0,-5.514585972E-1
2.831580466E0,7.580837607E-1,-9.856310487E-1,-5.377141237E-1
2.833681022E0,7.425066829E-1,-9.699012637E-1,-5.241223574E-1
2.835784822E0,7.255551815E-1,-9.517280459E-1,-5.080871582E-1
2.837883710E0,7.073819637E-1,-9.408851862E-1,-4.943426847E-1
2.839990429E0,6.893614531E-1,-9.275988936E-1,-4.819726646E-1
2.842083416E0,6.699664593E-1,-9.094256163E-1,-4.670064747E-1
2.844183290E0,6.543893814E-1,-8.936958313E-1,-4.546364546E-1
2.846280622E0,6.398813725E-1,-8.779660463E-1,-4.421137273E-1
2.848379204E0,6.302602291E-1,-8.610145450E-1,-4.297437072E-1
2.850469200E0,6.291912198E-1,-8.477282524E-1,-4.150829315E-1
2.852587872E0,6.317873597E-1,-8.403978348E-1,-4.004221559E-1
2.854687746E0,6.366742849E-1,-8.356636763E-1,-3.869831264E-1
2.856791029E0,6.476698518E-1,-8.332201838E-1,-3.785837293E-1
2.858887505E0,6.623306274E-1,-8.466592431E-1,-3.726277947E-1
2.860985334E0,6.806566119E-1,-8.527678847E-1,-3.666718602E-1
2.863078677E0,7.000515461E-1,-8.466592431E-1,-3.656028509E-1
2.865188957E0,7.206682563E-1,-8.382598162E-1,-3.669773042E-1
2.867290256E0,7.389942408E-1,-8.345946670E-1,-3.720169365E-1
2.869393577E0,7.583891749E-1,-8.272642493E-1,-3.795000315E-1
2.871489617E0,7.765624523E-1,-8.054258227E-1,-3.868304193E-1
2.873587212E0,7.947356701E-1,-7.787004709E-1,-3.955352604E-1
2.875691928E0,8.092437387E-1,-7.472409010E-1,-4.040873647E-1
2.877792534E0,8.261952400E-1,-7.119634151E-1,-4.101960063E-1
2.879893852E0,8.431467414E-1,-6.805039048E-1,-4.163046777E-1
2.881996280E0,8.602510095E-1,-6.501133442E-1,-4.248567820E-1
2.884106205E0,8.796459436E-1,-6.258314252E-1,-4.298964143E-1
2.886196201E0,9.014843702E-1,-6.015495658E-1,-4.323398769E-1
2.888295057E0,9.208793640E-1,-5.809328556E-1,-4.349360466E-1
2.890392967E0,9.428704977E-1,-5.652030706E-1,-4.314235747E-1
2.892496819E0,9.647089243E-1,-5.470298529E-1,-4.277583957E-1
2.894596917E0,9.854783416E-1,-5.264131427E-1,-4.193589985E-1
2.896697859E0,1.006247759E0,-5.047274232E-1,-4.085161388E-1
2.898797540E0,1.023504734E0,-4.853324294E-1,-3.950771093E-1
2.900898593E0,1.040609002E0,-4.636467099E-1,-3.805690408E-1
2.902999770E0,1.055269718E0,-4.442517459E-1,-3.646865487E-1
2.905097009E0,1.066418052E0,-4.273002446E-1,-3.475823104E-1
2.907190098E0,1.072679400E0,-4.152356386E-1,-3.329215646E-1
2.909300266E0,1.072679400E0,-4.031710625E-1,-3.194825351E-1
2.911401045E0,1.069166899E0,-3.911064863E-1,-3.058907688E-1
2.913503859E0,1.063210964E0,-3.753767014E-1,-2.935207486E-1
2.915600671E0,1.056033254E0,-3.572034538E-1,-2.811507285E-1
2.917702183E0,1.047633886E0,-3.304781020E-1,-2.675589919E-1
2.919804945E0,1.040609002E0,-3.051272035E-1,-2.527455091E-1
2.921904595E0,1.037096500E0,-2.845104933E-1,-2.379320115E-1
2.924004582E0,1.033583999E0,-2.651155293E-1,-2.257147133E-1
2.926104782E0,1.029918790E0,-2.457205504E-1,-2.157881409E-1
2.928205998E0,1.025184631E0,-2.238821089E-1,-2.095267773E-1
2.930306787E0,1.019075990E0,-2.093740702E-1,-2.069306076E-1
2.932406590E0,1.012967348E0,-1.948660165E-1,-2.092213482E-1
2.934507348E0,1.004567862E0,-1.789835095E-1,-2.139555514E-1
2.936608729E0,9.923505783E-1,-1.595885456E-1,-2.235766798E-1
2.938710475E0,9.824240208E-1,-1.437060535E-1,-2.331978083E-1
2.940817479E0,9.689850211E-1,-1.314887404E-1,-2.464841306E-1
2.942909438E0,9.518807530E-1,-1.157589629E-1,-2.597704530E-1
2.945009821E0,9.359982610E-1,-9.987647086E-2,-2.692388594E-1
2.947108383E0,9.188940525E-1,-9.010262042E-2,-2.813034356E-1
2.949209254E0,8.981246352E-1,-8.399397135E-2,-2.921462953E-1
2.951303705E0,8.785769343E-1,-7.544185966E-2,-3.052799106E-1
2.953413152E0,8.626944423E-1,-6.200282276E-2,-3.161227703E-1
2.955512558E0,8.492553830E-1,-4.978551716E-2,-3.281873465E-1
2.957615819E0,8.382598162E-1,-4.123340547E-2,-3.390302062E-1
2.959714563E0,8.345946670E-1,-2.916881628E-2,-3.463605940E-1
2.961814560E0,8.344419003E-1,-1.328631863E-2,-3.523165286E-1
2.963915288E0,8.344419003E-1,-2.290744567E-3,-3.584251702E-1
2.966015284E0,8.405506015E-1,8.552113548E-3,-3.620903790E-1
2.968116654E0,8.501716852E-1,2.550362423E-2,-3.657555580E-1
2.970218857E0,8.562803864E-1,4.382958263E-2,-3.694207668E-1
2.972323420E0,8.672759533E-1,5.833763257E-2,-3.743076921E-1
2.974417496E0,8.744536042E-1,7.651086897E-2,-3.791945875E-1
2.976516689E0,8.830057383E-1,9.712757170E-2,-3.853032589E-1
2.978615800E0,8.926268220E-1,1.166752651E-1,-3.938553631E-1
2.980719274E0,9.010262489E-1,1.336267740E-1,-3.987422884E-1
2.982817469E0,9.095783234E-1,1.554652005E-1,-4.036292136E-1
2.984911118E0,9.144652486E-1,1.797471046E-1,-4.097378552E-1
2.987021898E0,9.216429591E-1,2.040289938E-1,-4.158465266E-1
2.989121436E0,9.240863919E-1,2.234239578E-1,-4.230241776E-1
2.991224401E0,9.288206100E-1,2.501493096E-1,-4.303545654E-1
2.993321477E0,9.288206100E-1,2.744311988E-1,-4.399756789E-1
2.995420233E0,9.312640429E-1,2.988658249E-1,-4.485278130E-1
2.997523881E0,9.286679029E-1,3.266601861E-1,-4.557054639E-1
2.999624141E0,9.298896194E-1,3.607159257E-1,-4.592179358E-1
3.001723546E0,9.288206100E-1,3.958406746E-1,-4.590652287E-1
3.003815395E0,9.275988936E-1,4.335615933E-1,-4.540255964E-1
3.005916032E0,9.277516007E-1,4.758640230E-1,-4.453207552E-1
3.008027055E0,9.254608750E-1,5.158756971E-1,-4.315762818E-1
3.010128689E0,9.207266569E-1,5.499314666E-1,-4.192062616E-1
3.012227595E0,9.159924388E-1,5.801692605E-1,-4.043927789E-1
3.014315588E0,9.075930119E-1,6.042984724E-1,-3.908010423E-1
3.016420640E0,8.955284357E-1,6.212499738E-1,-3.772092760E-1
3.018535214E0,8.834638596E-1,6.310238242E-1,-3.648392558E-1
3.020633124E0,8.701775670E-1,6.357579827E-1,-3.524692357E-1
3.022732530E0,8.605564237E-1,6.308710575E-1,-3.425426781E-1
3.024829525E0,8.521569967E-1,6.188064814E-1,-3.303253949E-1
3.026931780E0,8.449793458E-1,6.029239893E-1,-3.229950070E-1
3.029030586E0,8.449793458E-1,5.823072791E-1,-3.170390725E-1
3.031132799E0,8.523097038E-1,5.629123449E-1,-3.135266006E-1
3.033232581E0,8.620835543E-1,5.458080769E-1,-3.112358451E-1
3.035334001E0,8.790351152E-1,5.349652171E-1,-3.150537610E-1
3.037435229E0,8.984300494E-1,5.239696503E-1,-3.164281845E-1
3.039535946E0,9.202684760E-1,5.155702829E-1,-3.228422701E-1
3.041635464E0,9.445503950E-1,5.155702829E-1,-3.278819323E-1
3.043735074E0,9.688322544E-1,5.167919993E-1,-3.318525553E-1
3.045834317E0,9.941831827E-1,5.119050741E-1,-3.393356502E-1
3.047933459E0,1.018465042E0,5.045747161E-1,-3.469714522E-1
3.050029701E0,1.043968678E0,5.045747161E-1,-3.520110846E-1
3.052138700E0,1.065807104E0,5.057964325E-1,-3.596469164E-1
3.054239713E0,1.088867307E0,5.070181489E-1,-3.622430861E-1
3.056341031E0,1.108262300E0,5.106833577E-1,-3.636175394E-1
3.058439899E0,1.127810001E0,5.203045011E-1,-3.613267839E-1
3.060537228E0,1.143692493E0,5.311473012E-1,-3.565925956E-1
3.062630338E0,1.158200502E0,5.468770862E-1,-3.504839242E-1
3.064740435E0,1.171792269E0,5.542075038E-1,-3.408628106E-1
3.066841713E0,1.181566119E0,5.687155724E-1,-3.286454976E-1
3.068945219E0,1.185384035E0,5.832235813E-1,-3.164281845E-1
3.071047758E0,1.187827468E0,5.940664411E-1,-3.028364480E-1
3.073157142E0,1.186758399E0,6.122397184E-1,-2.857322097E-1
3.075244464E0,1.178511739E0,6.279694438E-1,-2.696970105E-1
3.077344683E0,1.170112371E0,6.472117305E-1,-2.499966025E-1
3.079441647E0,1.154535294E0,6.653849483E-1,-2.325869352E-1
3.081545530E0,1.136362076E0,6.835582256E-1,-2.116648108E-1
3.083646432E0,1.113454580E0,7.041749358E-1,-1.918116808E-1
3.085747089E0,1.085660219E0,7.221954465E-1,-1.731802970E-1
3.087848305E0,1.056796908E0,7.379252315E-1,-1.521054506E-1
3.089947599E0,1.022893906E0,7.548767328E-1,-1.345430762E-1
3.092048124E0,9.902125597E-1,7.767151594E-1,-1.159116775E-1
3.094145953E0,9.538660645E-1,7.948883772E-1,-1.007927656E-1
3.096240375E0,9.211847782E-1,8.118399382E-1,-8.582656831E-2
3.098349821E0,8.860600591E-1,8.324565887E-1,-7.070764899E-2
3.100450549E0,8.509352803E-1,8.542950749E-1,-5.558873713E-2
3.102553577E0,8.158105612E-1,8.736900091E-1,-4.428773001E-2
3.104650613E0,7.806857824E-1,8.906415105E-1,-3.405573592E-2
3.106741668E0,7.502952218E-1,9.053022861E-1,-2.886338346E-2
3.108851582E0,7.176139355E-1,9.173668623E-1,-2.244929783E-2
3.110953601E0,6.884451509E-1,9.234755635E-1,-2.214386500E-2
3.113056802E0,6.617197990E-1,9.320276380E-1,-2.306016348E-2
3.115156188E0,6.349944472E-1,9.381362796E-1,-2.764165215E-2
3.117261240E0,6.105598211E-1,9.454666972E-1,-3.359758854E-2
3.119353423E0,5.934556127E-1,9.503536224E-1,-4.199698567E-2
3.121447152E0,5.763513446E-1,9.613491893E-1,-5.268712714E-2
3.123554972E0,5.665774941E-1,9.711230397E-1,-6.475171447E-2
3.125657490E0,5.603161454E-1,9.808968902E-1,-7.941248268E-2
3.127760304E0,5.603161454E-1,9.918924570E-1,-9.529497474E-2
3.129858620E0,5.673410892E-1,1.006553173E0,-1.136209369E-1
3.131959125E0,5.781839490E-1,1.019839525E0,-1.319468915E-1
3.134059153E0,5.939137340E-1,1.033278584E0,-1.490511149E-1
3.136159983E0,6.143777370E-1,1.049161077E0,-1.663080603E-1
3.138259267E0,6.398813725E-1,1.063669086E0,-1.823432744E-1
3.140353504E0,6.688974500E-1,1.079551578E0,-1.973094791E-1
3.142461862E0,7.015787363E-1,1.092837930E0,-2.109012306E-1
3.144561736E0,7.319692969E-1,1.108720422E0,-2.209804952E-1
3.146661886E0,7.634288669E-1,1.125671983E0,-2.296853364E-1
3.148748434E0,7.950411439E-1,1.142623425E0,-2.359467000E-1
3.150845601E0,8.242099285E-1,1.154688001E0,-2.374738604E-1
3.152964498E0,8.509352803E-1,1.171639562E0,-2.364048511E-1
3.155068257E0,8.741481900E-1,1.192256212E0,-2.341141105E-1
3.157169891E0,8.947648406E-1,1.212872982E0,-2.292271852E-1
3.159264222E0,9.143125415E-1,1.232267857E0,-2.232712507E-1
3.161357696E0,9.338602424E-1,1.247997642E0,-2.148718536E-1
3.163466929E0,9.497427344E-1,1.258840561E0,-2.087631971E-1
3.165565806E0,9.644035101E-1,1.266018271E0,-2.003637999E-1
3.167667928E0,9.766207933E-1,1.270905137E0,-1.919644028E-1
3.169760945E0,9.876163602E-1,1.275639296E0,-1.821905524E-1
3.171857951E0,9.949467778E-1,1.278082848E0,-1.748601794E-1
3.173959208E0,9.975429177E-1,1.284038782E0,-1.638645977E-1
3.176066763E0,9.975429177E-1,1.292590857E0,-1.565342247E-1
3.178173564E0,9.964739084E-1,1.303433776E0,-1.443169117E-1
3.180273580E0,9.917397499E-1,1.316720009E0,-1.331686229E-1
3.182370677E0,9.833403230E-1,1.333671570E0,-1.232420653E-1
3.184462474E0,9.761626720E-1,1.350623012E0,-1.120937690E-1
3.186573406E0,9.653198123E-1,1.371239781E0,-1.009454802E-1
3.188674531E0,9.508117437E-1,1.393078208E0,-9.101892263E-2
3.190776601E0,9.338602424E-1,1.414916635E0,-7.849618047E-2
3.192872589E0,9.108000994E-1,1.437976837E0,-6.963863969E-2
3.194966930E0,8.878926635E-1,1.465771198E0,-5.711590126E-2
3.197075909E0,8.576548100E-1,1.492496490E0,-4.810563847E-2
3.199176271E0,8.248208165E-1,1.515556693E0,-3.802636266E-2
3.201279104E0,7.896960378E-1,1.542281985E0,-2.779436857E-2
3.203375479E0,7.582364678E-1,1.569007397E0,-1.878410578E-2
3.205468914E0,7.267768979E-1,1.589624047E0,-9.926560335E-3
3.207578930E0,7.000515461E-1,1.609019041E0,-4.734205548E-3
3.209679169E0,6.745479703E-1,1.628414035E0,4.581489484E-4
3.211781943E0,6.551529765E-1,1.645365596E0,4.428773187E-3
3.213878012E0,6.369797587E-1,1.661248088E0,4.581489135E-3
3.215968334E0,6.223189831E-1,1.673312664E0,5.955935922E-3
3.218069083E0,6.053674817E-1,1.691485882E0,6.261368748E-3
3.220169750E0,5.933028460E-1,1.711033583E0,8.857546374E-3
3.222273428E0,5.835290551E-1,1.726763368E0,9.010262787E-3
3.224372926E0,5.763513446E-1,1.741271377E0,1.038470957E-2
3.226473675E0,5.714644194E-1,1.754710436E0,1.298088674E-2
3.228573132E0,5.665774941E-1,1.761888027E0,1.298088674E-2
3.230668519E0,5.629123449E-1,1.763109803E0,1.175915636E-2
3.232775229E0,5.568036437E-1,1.758375645E0,8.246680722E-3
3.234875480E0,5.506950021E-1,1.749823451E0,3.359758761E-3
3.236977968E0,5.445863605E-1,1.734093666E0,-1.527163084E-3
3.239077537E0,5.396994352E-1,1.715920448E0,-6.566801574E-3
3.241177980E0,5.346598029E-1,1.696525455E0,-1.389718428E-2
3.243281110E0,5.261076689E-1,1.679574013E0,-1.756237634E-2
3.245380668E0,5.175555944E-1,1.668731093E0,-2.244929783E-2
3.247489087E0,5.126686692E-1,1.662622452E0,-2.611448988E-2
3.249578523E0,5.016731024E-1,1.661400795E0,-3.084869497E-2
3.251680248E0,4.932736754E-1,1.665065885E0,-3.191770986E-2
3.253778556E0,4.822781086E-1,1.672396302E0,-3.298672289E-2
3.255882439E0,4.700607955E-1,1.678504944E0,-3.298672289E-2
3.257981998E0,4.628831446E-1,1.685835361E0,-3.527746722E-2
3.260081901E0,4.531092942E-1,1.687057137E0,-3.390302137E-2
3.262182955E0,4.470006526E-1,1.690722227E0,-3.512475267E-2
3.264285250E0,4.433354437E-1,1.689500570E0,-3.512475267E-2
3.266384880E0,4.408919811E-1,1.680948496E0,-3.145955876E-2
3.268487673E0,4.410447180E-1,1.669952869E0,-2.657263726E-2
3.270596774E0,4.422664344E-1,1.661553502E0,-2.046398632E-2
3.272695345E0,4.459316432E-1,1.656666517E0,-1.084285788E-2
3.274798983E0,4.521929920E-1,1.651779652E0,-2.290744567E-3
3.276896853E0,4.583016634E-1,1.650405169E0,6.108652335E-3
3.278997704E0,4.619668424E-1,1.651626945E0,1.954768784E-2
3.281097486E0,4.608978331E-1,1.658804536E0,2.825251780E-2
3.283198225E0,4.621195495E-1,1.662469745E0,3.558290005E-2
3.285299218E0,4.549418986E-1,1.663691521E0,3.924809024E-2
3.287399438E0,4.463897645E-1,1.671021819E0,4.062253982E-2
3.289500827E0,4.318817258E-1,1.680642962E0,4.077525437E-2
3.291600182E0,4.159992337E-1,1.684308171E0,3.604105115E-2
3.293699252E0,3.976732790E-1,1.685682654E0,3.130684420E-2
3.295793409E0,3.746131063E-1,1.689347863E0,2.290744707E-2
3.297900781E0,3.514002264E-1,1.695456505E0,1.221730467E-2
3.300002627E0,3.257438838E-1,1.690722227E0,1.374446787E-3
3.302105024E0,3.000875413E-1,1.682170153E0,-9.315694682E-3
3.304205223E0,2.721404731E-1,1.677435994E0,-2.260201424E-2
3.306307174E0,2.464841306E-1,1.669036508E0,-3.344487399E-2
3.308404718E0,2.208277881E-1,1.652085066E0,-4.673119262E-2
3.310505140E0,1.963931769E-1,1.636355281E0,-6.246097013E-2
3.312605218E0,1.719585657E-1,1.625512362E0,-7.696902007E-2
3.314702478E0,1.510364264E-1,1.614822268E0,-9.514226019E-2
3.316789870E0,1.302670091E-1,1.606270194E0,-1.120937690E-1
3.318907719E0,1.105666086E-1,1.595579982E0,-1.351539344E-1
3.321008345E0,9.224065393E-2,1.592067599E0,-1.569923609E-1
3.323114363E0,7.498370856E-2,1.588402390E0,-1.788308024E-1
3.325210280E0,5.910121277E-2,1.589776754E0,-1.994474977E-1
3.327314499E0,4.550946131E-2,1.594663739E0,-2.176207453E-1
3.329410303E0,3.573561832E-2,1.606881022E0,-2.321287990E-1
3.331511183E0,2.825251780E-2,1.625206947E0,-2.441933751E-1
3.333610111E0,2.214386500E-2,1.643380284E0,-2.515237629E-1
3.335711776E0,1.970040426E-2,1.659109950E0,-2.574796975E-1
3.337815221E0,1.970040426E-2,1.676214218E0,-2.587014437E-1
3.339925033E0,1.847867295E-2,1.691944003E0,-2.585487068E-1
3.342014042E0,2.214386500E-2,1.707673788E0,-2.597704530E-1
3.344114069E0,2.458732575E-2,1.719891071E0,-2.597704530E-1
3.346211583E0,2.703078650E-2,1.728290439E0,-2.597704530E-1
3.348317052E0,2.580905706E-2,1.736842632E0,-2.583959997E-1
3.350423913E0,2.336559631E-2,1.741729498E0,-2.596177161E-1
3.352516596E0,1.618792862E-2,1.741729498E0,-2.596177161E-1
3.354617101E0,5.192354787E-3,1.739286065E0,-2.594650090E-1
3.356716334E0,-1.191187184E-2,1.731955647E0,-2.605340183E-1
3.358820074E0,-3.619376570E-2,1.725999713E0,-2.640464902E-1
3.360926213E0,-6.291911751E-2,1.716378570E0,-2.700024247E-1
3.363019688E0,-9.224065393E-2,1.699427128E0,-2.770273983E-1
3.365117721E0,-1.238529310E-1,1.683697343E0,-2.842050493E-1
3.367216659E0,-1.568396538E-1,1.674076200E0,-2.948952019E-1
3.369319066E0,-1.908953935E-1,1.660789847E0,-3.069597781E-1
3.371421890E0,-2.263255715E-1,1.643838406E0,-3.213151097E-1
3.373523433E0,-2.605340183E-1,1.627039552E0,-3.346014321E-1
3.375622686E0,-2.984076738E-1,1.611309767E0,-3.526219726E-1
3.377723181E0,-3.313944042E-1,1.595732689E0,-3.730859458E-1
3.379822982E0,-3.643811047E-1,1.580002904E0,-3.961461186E-1
3.381921371E0,-3.937026560E-1,1.564425945E0,-4.167627990E-1
3.384014307E0,-4.205807149E-1,1.552361250E0,-4.384485185E-1
3.386125453E0,-4.402811229E-1,1.536631465E0,-4.543310404E-1
3.388225805E0,-4.573853612E-1,1.520901799E0,-4.700607955E-1
3.390329798E0,-4.708243906E-1,1.507615447E0,-4.786129296E-1
3.392423885E0,-4.781547785E-1,1.493107319E0,-4.847215712E-1
3.394517096E0,-4.770857692E-1,1.478599310E0,-4.883867502E-1
3.396628027E0,-4.746423066E-1,1.466382027E0,-4.873177409E-1
3.398728389E0,-4.673119187E-1,1.453095675E0,-4.836525619E-1
3.400832078E0,-4.538728893E-1,1.443321824E0,-4.764748812E-1
3.402929338E0,-4.367686510E-1,1.429882765E0,-4.670064747E-1
3.405030879E0,-4.196644127E-1,1.415222049E0,-4.524984360E-1
3.407132117E0,-4.025602043E-1,1.407891631E0,-4.367686510E-1
3.409231014E0,-3.901901841E-1,1.401782990E0,-4.198171496E-1
3.411331599E0,-3.814853430E-1,1.399186850E0,-4.004221559E-1
3.413432175E0,-3.753767014E-1,1.397965074E0,-3.833179474E-1
3.415530127E0,-3.740022480E-1,1.403921008E0,-3.637702465E-1
3.417622962E0,-3.775147200E-1,1.406364560E0,-3.454442918E-1
3.419733730E0,-3.833179474E-1,1.404990077E0,-3.269656301E-1
3.421835059E0,-3.917173445E-1,1.404990077E0,-3.098613918E-1
3.423938137E0,-4.050036669E-1,1.403768301E0,-2.926044464E-1
3.426032050E0,-4.193589985E-1,1.397659659E0,-2.765692472E-1
3.428127560E0,-4.350887835E-1,1.385442376E0,-2.606867552E-1
3.430237626E0,-4.557054639E-1,1.373225093E0,-2.483167201E-1
3.432337847E0,-4.787656367E-1,1.357495308E0,-2.371684313E-1
3.434439786E0,-5.028948188E-1,1.341765523E0,-2.272418737E-1
3.436537971E0,-5.332853794E-1,1.327104688E0,-2.148718536E-1
3.438639391E0,-5.623014569E-1,1.320996046E0,-2.047925740E-1
3.440740780E0,-5.913175344E-1,1.317330956E0,-1.886046380E-1
3.442839840E0,-6.239988208E-1,1.311222196E0,-1.713477075E-1
3.444940213E0,-6.530149579E-1,1.305113554E0,-1.527163088E-1
3.447040647E0,-6.820310354E-1,1.301448345E0,-1.291979998E-1
3.449142026E0,-7.061602473E-1,1.301448345E0,-1.033889428E-1
3.451242398E0,-7.290676832E-1,1.293965340E0,-7.391469181E-2
3.453342495E0,-7.493789196E-1,1.278082848E0,-4.321871698E-2
3.455443194E0,-7.686212063E-1,1.257466078E0,-8.857546374E-3
3.457544451E0,-7.841982841E-1,1.230588078E0,2.412917651E-2
3.459639869E0,-7.961101532E-1,1.198975801E0,5.711590126E-2
3.461727627E0,-8.092437387E-1,1.163698316E0,8.765916526E-2
3.463845080E0,-8.187121153E-1,1.129642606E0,1.156062484E-1
3.465946144E0,-8.281805515E-1,1.099099278E0,1.449277848E-1
3.468051115E0,-8.365799785E-1,1.073595643E0,1.656972021E-1
3.470147010E0,-8.437576294E-1,1.044426799E0,1.852448881E-1
3.472248156E0,-8.546004891E-1,1.025031924E0,1.974621862E-1
3.474349251E0,-8.666650653E-1,1.011592865E0,2.060143054E-1
3.476449023E0,-8.860600591E-1,1.001971722E0,2.086104751E-1
3.478548999E0,-9.056077003E-1,9.934195876E-1,2.063197345E-1
3.480647021E0,-9.275988936E-1,9.886853695E-1,1.991420686E-1
3.482740232E0,-9.506590366E-1,9.886853695E-1,1.870774776E-1
3.484849719E0,-9.763153791E-1,9.925032854E-1,1.690569520E-1
3.486949705E0,-1.003346205E0,9.961684942E-1,1.473712474E-1
3.489053241E0,-1.027780771E0,1.002429843E0,1.206458881E-1
3.491153501E0,-1.051146388E0,1.012203693E0,9.285151958E-2
3.493250720E0,-1.074512005E0,1.026864529E0,6.123924255E-2
3.495344206E0,-1.095434070E0,1.042899728E0,3.100141138E-2
3.497455290E0,-1.116356254E0,1.058782220E0,3.207042580E-3
3.499554552E0,-1.135903955E0,1.075886369E0,-2.351831272E-2
3.501657763E0,-1.158047795E0,1.094212413E0,-4.520402849E-2
3.503753396E0,-1.177595496E0,1.109942198E0,-6.200282276E-2
3.505844684E0,-1.195921421E0,1.124602914E0,-7.284568250E-2
3.507948190E0,-1.212872982E0,1.128268123E0,-7.880161703E-2
3.510057788E0,-1.229977131E0,1.123533845E0,-7.987063378E-2
3.512160144E0,-1.246928692E0,1.106429696E0,-7.620543987E-2
3.514258167E0,-1.261436701E0,1.082147837E0,-6.750060618E-2
3.516346759E0,-1.273653984E0,1.040914416E0,-5.787948146E-2
3.518449950E0,-1.280831695E0,9.923505783E-1,-4.459316283E-2
3.520560718E0,-1.285565853E0,9.376781583E-1,-2.764165215E-2
3.522663654E0,-1.284191489E0,8.793405294E-1,-9.468411095E-3
3.524764332E0,-1.279304504E0,8.173376918E-1,1.343903504E-2
3.526861775E0,-1.266934514E0,7.590000629E-1,3.619376570E-2
3.528962819E0,-1.252273798E0,7.092145681E-1,6.154467165E-2
3.531062752E0,-1.236238599E0,6.604980230E-1,8.567385375E-2
3.533163410E0,-1.217912555E0,6.131559610E-1,1.085812971E-1
3.535263721E0,-1.196990490E0,5.766568184E-1,1.288925707E-1
3.537361938E0,-1.173777580E0,5.450445414E-1,1.469130963E-1
3.539455453E0,-1.150564671E0,5.169447064E-1,1.637118906E-1
3.541566913E0,-1.127351761E0,4.914411008E-1,1.780672222E-1
3.543666218E0,-1.104291677E0,4.708243906E-1,1.875356287E-1
3.545769521E0,-1.083522201E0,4.512766898E-1,1.959350258E-1
3.547862223E0,-1.064127207E0,4.367686510E-1,1.992947906E-1
3.549949411E0,-1.048244715E0,4.221078753E-1,2.015855312E-1
3.552068439E0,-1.038623691E0,4.063780904E-1,2.014328092E-1
3.554168578E0,-1.032514930E0,3.978259861E-1,1.988366395E-1
3.556272715E0,-1.028849840E0,3.966042697E-1,1.939497143E-1
3.558371002E0,-1.029002547E0,3.978259861E-1,1.878410578E-1
3.560475840E0,-1.027780771E0,4.039346576E-1,1.841758788E-1
3.562572285E0,-1.030224204E0,4.124867618E-1,1.792889535E-1
3.564672699E0,-1.036332846E0,4.185954034E-1,1.733330190E-1
3.566770803E0,-1.046106696E0,4.185954034E-1,1.696678251E-1
3.568872498E0,-1.061989188E0,4.137084782E-1,1.661553532E-1
3.570973083E0,-1.081384182E0,4.053090811E-1,1.589776874E-1
3.573074320E0,-1.105818868E0,3.895792961E-1,1.579086632E-1
3.575175456E0,-1.134987593E0,3.714060783E-1,1.519527286E-1
3.577275432E0,-1.169043422E0,3.495676219E-1,1.498146951E-1
3.579375346E0,-1.204320788E0,3.327688277E-1,1.450804919E-1
3.581473399E0,-1.240820050E0,3.170390725E-1,1.441642046E-1
3.583567200E0,-1.274875760E0,3.000875413E-1,1.432479024E-1
3.585677501E0,-1.311375022E0,2.782491148E-1,1.421788931E-1
3.587777599E0,-1.341765523E0,2.588541508E-1,1.411098689E-1
3.589880717E0,-1.372156024E0,2.382374406E-1,1.426370293E-1
3.591979706E0,-1.401477575E0,2.127338201E-1,1.427897513E-1
3.594079774E0,-1.425759435E0,1.861611903E-1,1.427897513E-1
3.596176850E0,-1.448819637E0,1.618792862E-1,1.404990107E-1
3.598266888E0,-1.465923905E0,1.375973970E-1,1.356120855E-1
3.600380768E0,-1.483028054E0,1.122464910E-1,1.296561509E-1
3.602481476E0,-1.497688890E0,8.674286306E-2,1.198823079E-1
3.604585806E0,-1.506393671E0,6.612616032E-2,1.088867337E-1
3.606683157E0,-1.510058880E0,4.932736978E-2,9.529497474E-2
3.608784018E0,-1.515098572E0,3.481931984E-2,8.185594529E-2
3.610883505E0,-1.520138144E0,2.397646010E-2,6.841690838E-2
3.612983796E0,-1.523803353E0,1.786780916E-2,5.253441259E-2
3.615080669E0,-1.525177836E0,1.313360315E-2,3.787364438E-2
3.617175030E0,-1.526552200E0,7.024950348E-3,2.321287990E-2
3.619286713E0,-1.526552200E0,2.290744567E-3,1.221730467E-2
3.621395519E0,-1.523039818E0,-1.374446787E-3,4.886921961E-3
3.623489605E0,-1.521818042E0,-8.552113548E-3,1.069014193E-3
3.625586326E0,-1.517083883E0,-2.076941915E-2,1.069014193E-3
3.627676027E0,-1.512196898E0,-3.405573592E-2,2.138028387E-3
3.629789450E0,-1.508531690E0,-4.993823543E-2,8.246680722E-3
3.631890443E0,-1.501048565E0,-6.933320314E-2,1.542434748E-2
3.633992026E0,-1.493718266E0,-9.361509979E-2,2.504547499E-2
3.636090100E0,-1.486387849E0,-1.215621829E-1,3.329215571E-2
3.638190625E0,-1.479057431E0,-1.543961912E-1,4.413501546E-2
3.640292116E0,-1.472948790E0,-1.872301996E-1,5.497787148E-2
3.642392854E0,-1.466840148E0,-2.237294018E-1,6.826419383E-2
3.644492392E0,-1.458135366E0,-2.565633953E-1,8.017606288E-2
3.646590283E0,-1.448361516E0,-2.832887471E-1,9.346238524E-2
3.648683606E0,-1.433700681E0,-3.063489199E-1,1.029307917E-1
3.650794669E0,-1.414153099E0,-3.294090927E-1,1.137736514E-1
3.652894563E0,-1.388649464E0,-3.501785100E-1,1.232420653E-1
3.654997581E0,-1.360549569E0,-3.707951903E-1,1.288925707E-1
3.657095818E0,-1.328937292E0,-3.866777122E-1,1.359175146E-1
3.659194756E0,-1.299768567E0,-4.048509300E-1,1.368338168E-1
3.661285962E0,-1.268308997E0,-4.243986309E-1,1.353066564E-1
3.663397239E0,-1.244027019E0,-4.364632070E-1,1.288925707E-1
3.665497621E0,-1.225853801E0,-4.474588037E-1,1.224784851E-1
3.667601239E0,-1.215011001E0,-4.570799172E-1,1.114829108E-1
3.669698244E0,-1.213789225E0,-4.595233798E-1,1.003346145E-1
3.671796430E0,-1.218828917E0,-4.544837475E-1,8.338310570E-2
3.673901309E0,-1.229977131E0,-4.471533597E-1,6.887505949E-2
3.676003157E0,-1.243416190E0,-4.410447180E-1,5.314527452E-2
3.678101911E0,-1.261742115E0,-4.324925840E-1,3.863722831E-2
3.680201917E0,-1.283733368E0,-4.263839424E-1,2.290744707E-2
3.682303001E0,-1.306946158E0,-4.274529517E-1,7.330383174E-3
3.684403129E0,-1.328937292E0,-4.321871698E-1,-4.734205548E-3
3.686502312E0,-1.349706769E0,-4.407392740E-1,-1.435533352E-2
3.688602542E0,-1.370476127E0,-4.430300295E-1,-2.031126991E-2
3.690705182E0,-1.388649464E0,-4.418082833E-1,-2.260201424E-2
3.692803825E0,-1.405600905E0,-4.430300295E-1,-2.000583708E-2
3.694895795E0,-1.420261741E0,-4.393648207E-1,-1.374446787E-2
3.697006452E0,-1.428661108E0,-4.395175576E-1,-3.054326226E-4
3.699107425E0,-1.433395267E0,-4.479169548E-1,1.191187184E-2
3.701209709E0,-1.436907768E0,-4.601342380E-1,3.023782931E-2
3.703309278E0,-1.433089852E0,-4.784601927E-1,4.856378585E-2
3.705414208E0,-1.426828504E0,-4.943426847E-1,7.284568250E-2
3.707509219E0,-1.418123722E0,-5.126686692E-1,9.834930301E-2
3.709610354E0,-1.405753613E0,-5.297728777E-1,1.287398487E-1
3.711708509E0,-1.390940189E0,-5.456553698E-1,1.589776874E-1
3.713812972E0,-1.374904990E0,-5.615378618E-1,1.893682331E-1
3.715919183E0,-1.357648015E0,-5.749769211E-1,2.173153162E-1
3.718011977E0,-1.339169383E0,-5.884159207E-1,2.426662147E-1
3.720112124E0,-1.317178130E0,-6.042984724E-1,2.632829249E-1
3.722211053E0,-1.296408772E0,-6.189591885E-1,2.776382565E-1
3.724313277E0,-1.274417639E0,-6.397286057E-1,2.871066630E-1
3.726414839E0,-1.253800869E0,-6.627888083E-1,2.904664278E-1
3.728514581E0,-1.234253287E0,-6.870706677E-1,2.903137207E-1
3.730615350E0,-1.217301726E0,-7.137960196E-1,2.875648141E-1
3.732715113E0,-1.205237150E0,-7.368562222E-1,2.825251818E-1
3.734815780E0,-1.191950798E0,-7.562511563E-1,2.736676335E-1
3.736914230E0,-1.179886222E0,-7.695375085E-1,2.612976134E-1
3.739008661E0,-1.169196129E0,-7.816020846E-1,2.452623993E-1
3.741118402E0,-1.163240194E0,-7.887797356E-1,2.269364446E-1
3.743218754E0,-1.159727693E0,-7.947356701E-1,2.060143054E-1
3.745319137E0,-1.157436967E0,-7.947356701E-1,1.852448881E-1
3.747415308E0,-1.160033107E0,-7.921395302E-1,1.620320082E-1
3.749509424E0,-1.168737888E0,-7.896960378E-1,1.438587606E-1
3.751620834E0,-1.178664446E0,-7.848091125E-1,1.244637966E-1
3.753721156E0,-1.189660072E0,-7.762570381E-1,1.073595658E-1
3.755821487E0,-1.204473495E0,-7.712173462E-1,9.040805697E-2
3.757911412E0,-1.219134331E0,-7.651087046E-1,7.590000331E-2
3.760020309E0,-1.235016823E0,-7.602217793E-1,6.383541971E-2
3.762123611E0,-1.246012330E0,-7.602217793E-1,5.543602258E-2
3.764226251E0,-1.253342748E0,-7.612907887E-1,5.177082866E-2
3.766325770E0,-1.257007957E0,-7.649559975E-1,5.070181563E-2
3.768424891E0,-1.255786180E0,-7.698429227E-1,5.054909736E-2
3.770523299E0,-1.250899315E0,-7.759515643E-1,5.054909736E-2
3.772615351E0,-1.244943380E0,-7.796167731E-1,5.161811411E-2
3.774725754E0,-1.236391306E0,-7.855727077E-1,5.039638281E-2
3.776828212E0,-1.226617455E0,-7.941248417E-1,5.024366826E-2
3.778929906E0,-1.214552879E0,-8.014551997E-1,5.131268129E-2
3.781027399E0,-1.202335477E0,-8.075638413E-1,5.115996301E-2
3.783127019E0,-1.186605692E0,-8.220719099E-1,5.222897977E-2
3.785236741E0,-1.174388409E0,-8.379544020E-1,5.451972410E-2
3.787330226E0,-1.157436967E0,-8.512406945E-1,5.543602258E-2
3.789430934E0,-1.139110923E0,-8.671231866E-1,5.650503561E-2
3.791529302E0,-1.122159481E0,-8.877398968E-1,5.619960278E-2
3.793632716E0,-1.102764487E0,-9.083566070E-1,5.360342562E-2
3.795729946E0,-1.084591269E0,-9.289733171E-1,4.841107130E-2
3.797822455E0,-1.066418052E0,-9.471465349E-1,3.955352306E-2
3.799933019E0,-1.045801282E0,-9.640980959E-1,2.840523422E-2
3.802033473E0,-1.026558995E0,-9.786061049E-1,1.221730467E-2
3.804134436E0,-1.008538485E0,-9.882272482E-1,-9.926560335E-3
3.806223863E0,-9.954048991E-1,-9.931141734E-1,-3.451388702E-2
3.808334113E0,-9.834930301E-1,-9.990701079E-1,-6.398813426E-2
3.810436834E0,-9.728028774E-1,-1.001360893E0,-9.346238524E-2
3.812538804E0,-9.668469429E-1,-1.003651619E0,-1.203404516E-1
3.814634588E0,-9.622654915E-1,-1.002429843E0,-1.423316002E-1
3.816726915E0,-9.624181986E-1,-9.998337030E-1,-1.618792862E-1
3.818837856E0,-9.625709057E-1,-9.998337030E-1,-1.789835095E-1
3.820938492E0,-9.625709057E-1,-1.002124429E0,-1.913535446E-1
3.823041958E0,-9.639453292E-1,-1.000902653E0,-2.009746730E-1
3.825139003E0,-9.639453292E-1,-1.005789638E0,-2.060143054E-1
3.827238389E0,-9.592111707E-1,-1.021519423E0,-2.096794993E-1
3.829341243E0,-9.604328871E-1,-1.038470864E0,-2.134974003E-1
3.831441891E0,-9.579893947E-1,-1.060309291E0,-2.147191316E-1
3.833543209E0,-9.579893947E-1,-1.085812926E0,-2.185370475E-1
3.835642371E0,-9.593638778E-1,-1.118494272E0,-2.223549485E-1
3.837740536E0,-9.630290866E-1,-1.147663116E0,-2.284636050E-1
3.839832963E0,-9.654725194E-1,-1.167058110E0,-2.322815061E-1
3.841944016E0,-9.692904353E-1,-1.185231328E0,-2.371684313E-1
3.844045295E0,-9.729556441E-1,-1.200961113E0,-2.396118939E-1
3.846147519E0,-9.729556441E-1,-1.210734963E0,-2.434297949E-1
3.848244118E0,-9.717338681E-1,-1.215621829E0,-2.422080636E-1
3.850340247E0,-9.644035101E-1,-1.220355988E0,-2.397646159E-1
3.852446662E0,-9.558513761E-1,-1.226464748E0,-2.386955917E-1
3.854547146E0,-9.437867999E-1,-1.232573390E0,-2.376265824E-1
3.856649228E0,-9.242390990E-1,-1.238682032E0,-2.390010208E-1
3.858744494E0,-9.011789560E-1,-1.247234106E0,-2.380847335E-1
3.860832190E0,-8.768970370E-1,-1.259298682E0,-2.383901626E-1
3.862949561E0,-8.489499688E-1,-1.273959517E0,-2.386955917E-1
3.865049923E0,-8.136724830E-1,-1.290910959E0,-2.402227521E-1
3.867155118E0,-7.773260474E-1,-1.311680436E0,-2.370157093E-1
3.869249397E0,-7.371616364E-1,-1.331075311E0,-2.350303978E-1
3.871345232E0,-6.945537925E-1,-1.351844788E0,-2.306016237E-1
3.873451769E0,-6.447682381E-1,-1.377348423E0,-2.273945808E-1
3.875551145E0,-5.948300362E-1,-1.404073715E0,-2.231185287E-1
3.877654610E0,-5.438227654E-1,-1.428355694E0,-2.188424766E-1
3.879753994E0,-4.903720617E-1,-1.454012036E0,-2.156354338E-1
3.881852526E0,-4.369213581E-1,-1.479515672E0,-2.138028294E-1
3.883944811E0,-3.810271919E-1,-1.494176388E0,-2.168571651E-1
3.886055794E0,-3.323107064E-1,-1.511127949E0,-2.185370475E-1
3.888155800E0,-2.838996351E-1,-1.522123456E0,-2.263255715E-1
3.890259030E0,-2.353358418E-1,-1.530522823E0,-2.342668176E-1
3.892354663E0,-1.892155111E-1,-1.541518450E0,-2.420553565E-1
3.894448698E0,-1.490511149E-1,-1.554957509E0,-2.484694421E-1
3.896558032E0,-1.114829108E-1,-1.573130727E0,-2.587014437E-1
3.898658883E0,-8.491026610E-2,-1.591303945E0,-2.638937831E-1
3.900762408E0,-6.429356337E-2,-1.616807580E0,-2.703078687E-1
3.902859891E0,-5.345070735E-2,-1.642311215E0,-2.753475010E-1
3.904960803E0,-5.222897977E-2,-1.663996935E0,-2.803871334E-1
3.907060779E0,-6.078109145E-2,-1.682170153E0,-2.852740586E-1
3.909161691E0,-7.666359097E-2,-1.699121714E0,-2.936734557E-1
3.911262979E0,-9.987647086E-2,-1.714851499E0,-3.010038435E-1
3.913360441E0,-1.351539344E-1,-1.730581284E0,-3.116939962E-1
3.915452960E0,-1.693623960E-1,-1.746311069E0,-3.236058652E-1
3.917563608E0,-2.083050460E-1,-1.757153869E0,-3.355177343E-1
3.919664101E0,-2.486221492E-1,-1.767996788E0,-3.474296033E-1
3.921767647E0,-2.936734557E-1,-1.776396155E0,-3.593414724E-1
3.923865171E0,-3.338378668E-1,-1.778686881E0,-3.736968040E-1
3.925966226E0,-3.717114925E-1,-1.776243448E0,-3.866777122E-1
3.928067565E0,-4.057672322E-1,-1.772425532E0,-3.973678350E-1
3.930166807E0,-4.387539625E-1,-1.771203756E0,-4.080579877E-1
3.932267363E0,-4.642575979E-1,-1.766316891E0,-4.176791012E-1
3.934367278E0,-4.838052690E-1,-1.761429906E0,-4.259257913E-1
3.936465911E0,-5.021312237E-1,-1.758833766E0,-4.343251884E-1
3.938563781E0,-5.167919993E-1,-1.758833766E0,-4.440990388E-1
3.940669747E0,-5.290092826E-1,-1.753946781E0,-4.537201524E-1
3.942770741E0,-5.338962078E-1,-1.746616483E0,-4.645630121E-1
3.944873056E0,-5.364924073E-1,-1.741729498E0,-4.731151462E-1
3.946971232E0,-5.340489149E-1,-1.735620856E0,-4.828889668E-1
3.949071899E0,-5.317581892E-1,-1.719891071E0,-4.889976382E-1
3.951172342E0,-5.256495476E-1,-1.699121714E0,-4.973970354E-1
3.953272918E0,-5.160284042E-1,-1.677283287E0,-5.047274232E-1
3.955373433E0,-5.074763298E-1,-1.657888293E0,-5.096143484E-1
3.957474131E0,-4.978551865E-1,-1.629941225E0,-5.169447064E-1
3.959574970E0,-4.856378734E-1,-1.596038222E0,-5.218316317E-1
3.961676737E0,-4.723515511E-1,-1.570534587E0,-5.316054821E-1
3.963775624E0,-4.590652287E-1,-1.547474384E0,-5.389358401E-1
3.965876922E0,-4.445571899E-1,-1.524414182E0,-5.451972485E-1
3.967977753E0,-4.262312353E-1,-1.506088257E0,-5.513058901E-1
3.970074838E0,-4.080579877E-1,-1.502423048E0,-5.563455224E-1
3.972168020E0,-3.849978149E-1,-1.507310033E0,-5.578727126E-1
3.974278137E0,-3.643811047E-1,-1.521970749E0,-5.555819273E-1
3.976379629E0,-3.376557529E-1,-1.546252608E0,-5.510004759E-1
3.978483033E0,-3.058907688E-1,-1.582751870E0,-5.416847467E-1
3.980581939E0,-2.791654170E-1,-1.626428723E0,-5.335907936E-1
3.982685475E0,-2.475531399E-1,-1.677435994E0,-5.242751241E-1
3.984779978E0,-2.183843255E-1,-1.727374196E0,-5.174028873E-1
3.986881552E0,-1.867720485E-1,-1.772272825E0,-5.117523670E-1
3.988980937E0,-1.576032341E-1,-1.815949678E0,-5.097670555E-1
3.991083028E0,-1.284344196E-1,-1.846340179E0,-5.065600276E-1
3.993183746E0,-9.926560521E-2,-1.861001015E0,-5.056437254E-1
3.995285360E0,-7.116580009E-2,-1.865887880E0,-5.035057068E-1
3.997384319E0,-4.321871698E-2,-1.867109656E0,-5.036584139E-1
3.999484873E0,-1.649336144E-2,-1.858557463E0,-5.064072609E-1
4.001585134E0,1.023199316E-2,-1.839162588E0,-5.090034604E-1
4.003686148E0,3.329215571E-2,-1.820989251E0,-5.152648091E-1
4.005784435E0,5.268712714E-2,-1.802816033E0,-5.238169432E-1
4.007874797E0,7.086037099E-2,-1.785711884E0,-5.337435007E-1
4.009978220E0,8.643743396E-2,-1.772425532E0,-5.459607840E-1
4.012089681E0,1.009454802E-1,-1.757764697E0,-5.583308339E-1
4.014194082E0,1.093448773E-1,-1.749212623E0,-5.717698932E-1
4.016300447E0,1.201877370E-1,-1.739591479E0,-5.853615999E-1
4.018379660E0,1.273654103E-1,-1.734704614E0,-5.963571668E-1
4.020489075E0,1.334740520E-1,-1.730886698E0,-6.097962260E-1
4.022578370E0,1.382082552E-1,-1.732108355E0,-6.220135093E-1
4.024684297E0,1.417207420E-1,-1.733330131E0,-6.368269920E-1
4.026791189E0,1.403462887E-1,-1.735620856E0,-6.514877677E-1
4.028895886E0,1.377501190E-1,-1.740507841E0,-6.649268270E-1
4.030995993E0,1.316414624E-1,-1.742798567E0,-6.806566119E-1
4.033094219E0,1.253800988E-1,-1.736689925E0,-6.928738952E-1
4.035196371E0,1.156062484E-1,-1.726916075E0,-7.073819637E-1
4.037300325E0,1.081231460E-1,-1.706299305E0,-7.206682563E-1
4.039395621E0,9.957103431E-2,-1.680642962E0,-7.339546084E-1
4.041495963E0,8.979719132E-2,-1.655139327E0,-7.496843934E-1
4.043595227E0,8.124507964E-2,-1.624748826E0,-7.615962625E-1
4.045697928E0,7.009678334E-2,-1.598023534E0,-7.724391222E-1
4.047800285E0,6.398813426E-2,-1.572519898E0,-7.832819819E-1
4.049909639E0,5.543602258E-2,-1.552972198E0,-7.904596329E-1
4.051998750E0,4.810563847E-2,-1.536020637E0,-7.964155674E-1
4.054099153E0,4.444044828E-2,-1.522734284E0,-8.013024926E-1
4.056196962E0,4.688390717E-2,-1.517847419E0,-8.061894178E-1
4.058296979E0,4.917465150E-2,-1.523803353E0,-8.122980595E-1
4.060386863E0,5.406157300E-2,-1.536020637E0,-8.171849847E-1
4.062502626E0,6.246097013E-2,-1.550528765E0,-8.222246170E-1
4.064601513E0,7.467827946E-2,-1.567480206E0,-8.237518072E-1
4.066704501E0,9.040805697E-2,-1.585653424E0,-8.251262307E-1
4.068798923E0,1.122464910E-1,-1.596649051E0,-8.229882121E-1
4.070893516E0,1.354593635E-1,-1.605201125E0,-8.206974864E-1
4.073004987E0,1.634064466E-1,-1.608866334E0,-8.136724830E-1
4.075105186E0,1.937969923E-1,-1.612531543E0,-8.078693151E-1
4.077208620E0,2.278527319E-1,-1.610240817E0,-8.020660877E-1
4.079306571E0,2.596177161E-1,-1.601841331E0,-7.961101532E-1
4.081406344E0,2.936734557E-1,-1.598176241E0,-7.903069258E-1
4.083506981E0,3.228422701E-1,-1.593441963E0,-7.881689072E-1
4.085607618E0,3.532328308E-1,-1.587333322E0,-7.870998979E-1
4.087707950E0,3.836233616E-1,-1.581224680E0,-7.874053121E-1
4.089808464E0,4.127921760E-1,-1.580155730E0,-7.889324427E-1
4.091907636E0,4.395175576E-1,-1.585042596E0,-7.903069258E-1
4.094004621E0,4.650211632E-1,-1.590998530E0,-7.930558324E-1
4.096111595E0,4.917465150E-1,-1.600772381E0,-7.958046794E-1
4.098210656E0,5.160284042E-1,-1.609324455E0,-7.973318696E-1
4.100312757E0,5.354233980E-1,-1.623832583E0,-8.011497855E-1
4.102410495E0,5.572618246E-1,-1.632384658E0,-8.051204085E-1
4.104504845E0,5.754350424E-1,-1.637271523E0,-8.089383245E-1
4.106613121E0,5.888741016E-1,-1.636049867E0,-8.151996732E-1
4.108713189E0,6.021603942E-1,-1.627497673E0,-8.237518072E-1
4.110816145E0,6.154467463E-1,-1.612989664E0,-8.323038816E-1
4.112913283E0,6.238461137E-1,-1.592220306E0,-8.445212245E-1
4.115004836E0,6.310238242E-1,-1.570381880E0,-8.567385077E-1
4.117115991E0,6.357579827E-1,-1.541213036E0,-8.713992834E-1
4.119215214E0,6.394231915E-1,-1.507157326E0,-8.834638596E-1
4.121317183E0,6.429356933E-1,-1.477988482E0,-9.005680680E-1
4.123416823E0,6.464481354E-1,-1.445154428E0,-9.150761366E-1
4.125513869E0,6.476698518E-1,-1.412320495E0,-9.283624291E-1
4.127608514E0,6.511823535E-1,-1.385595083E0,-9.405797720E-1
4.129718733E0,6.534730792E-1,-1.362534881E0,-9.526443481E-1
4.131820356E0,6.559165716E-1,-1.339474797E0,-9.636399150E-1
4.133922896E0,6.582072973E-1,-1.318858027E0,-9.720393419E-1
4.136023462E0,6.594290137E-1,-1.299310327E0,-9.793697000E-1
4.138132339E0,6.641632318E-1,-1.282358885E0,-9.854783416E-1
4.140221989E0,6.653849483E-1,-1.272585034E0,-9.902125597E-1
4.142322138E0,6.666067243E-1,-1.261742115E0,-9.999864101E-1
4.144420109E0,6.676757336E-1,-1.249524832E0,-1.006095052E0
4.146522089E0,6.676757336E-1,-1.238529325E0,-1.012203693E0
4.148614984E0,6.688974500E-1,-1.227533698E0,-1.023046613E0
4.150724898E0,6.687447429E-1,-1.216690898E0,-1.027933478E0
4.152824599E0,6.663012505E-1,-1.198517561E0,-1.034042120E0
4.154927658E0,6.650795341E-1,-1.181413412E0,-1.037554622E0
4.157025894E0,6.638578176E-1,-1.164461851E0,-1.039845347E0
4.159127172E0,6.663012505E-1,-1.137736559E0,-1.044732332E0
4.161227939E0,6.663012505E-1,-1.108567715E0,-1.045801282E0
4.163328638E0,6.687447429E-1,-1.079551578E0,-1.045648575E0
4.165427973E0,6.711881757E-1,-1.047939301E0,-1.041983366E0
4.167528854E0,6.750060916E-1,-1.011592865E0,-1.035722017E0
4.169627455E0,6.786713004E-1,-9.752463698E-1,-1.024573684E0
4.171719711E0,6.837109327E-1,-9.437867999E-1,-1.011134744E0
4.173828394E0,6.899722815E-1,-9.111055136E-1,-9.926560521E-1
4.175920578E0,6.962336898E-1,-8.856018782E-1,-9.682214260E-1
4.178034216E0,7.014260292E-1,-8.602510095E-1,-9.424123764E-1
4.180134434E0,7.076873779E-1,-8.361217976E-1,-9.130908251E-1
4.182241419E0,7.153232098E-1,-8.168795705E-1,-8.837692738E-1
4.184333410E0,7.215845585E-1,-8.023715019E-1,-8.544477820E-1
4.186433518E0,7.315111160E-1,-7.855727077E-1,-8.275696635E-1
4.188532547E0,7.451028824E-1,-7.759515643E-1,-8.031350970E-1
4.190634750E0,7.623597980E-1,-7.712173462E-1,-7.837401032E-1
4.192735366E0,7.819074988E-1,-7.640396953E-1,-7.631233931E-1
4.194834579E0,8.038986921E-1,-7.483099103E-1,-7.510588169E-1
4.196935837E0,8.258898258E-1,-7.325801253E-1,-7.402159572E-1
4.199035559E0,8.478809595E-1,-7.082982659E-1,-7.316638231E-1
4.201137863E0,8.674286604E-1,-6.756169796E-1,-7.281513810E-1
4.203236008E0,8.831584454E-1,-6.380487680E-1,-7.281513810E-1
4.205328650E0,8.941540122E-1,-5.955936313E-1,-7.316638231E-1
4.207439214E0,9.027060866E-1,-5.506950021E-1,-7.388415337E-1
4.209539576E0,9.049968719E-1,-5.033529401E-1,-7.509061098E-1
