"Time (s)","Linear Acceleration x (m/s^2)","Linear Acceleration y (m/s^2)","Linear Acceleration z (m/s^2)","Absolute acceleration (m/s^2)"
-2.258624998E-3,-2.155163547E-2,-1.573128047E-2,9.942020774E-3,2.847437364E-2
7.691374980E-3,-1.918095041E-2,-3.308970858E-2,-2.688198924E-2,4.674910714E-2
1.764037498E-2,4.301161584E-3,-4.445810279E-2,1.708556414E-3,4.469834516E-2
2.759037499E-2,1.006408597E-2,-5.206670537E-2,-2.044595897E-2,5.683541917E-2
3.753937499E-2,3.401881744E-2,-2.183591065E-2,-9.070200920E-3,4.142892080E-2
4.748937499E-2,3.971706614E-2,-1.912436946E-3,-1.286387444E-3,3.978388556E-2
5.743837499E-2,2.995012836E-2,-2.209507478E-3,-3.706199169E-2,4.770202658E-2
6.738837500E-2,1.369585100E-2,-2.040625272E-2,-5.178294182E-3,2.511585586E-2
7.733737500E-2,-1.813701228E-3,-3.489360202E-2,-5.029190183E-3,3.530078934E-2
8.728737500E-2,-1.140543724E-2,-3.366202308E-2,-2.942903638E-2,4.614416517E-2
9.723637500E-2,-3.259169939E-2,-3.123434594E-2,2.086578906E-2,4.973112093E-2
1.071863750E-1,-3.839075774E-2,-2.510305610E-2,-2.059974074E-2,5.028283032E-2
1.171353750E-1,-3.444988971E-2,-1.182801734E-2,-2.194752395E-2,4.252517728E-2
1.270853750E-1,-3.004698201E-2,-1.331890658E-3,5.295238495E-3,3.053906697E-2
1.370343750E-1,-1.688803331E-2,1.248341713E-2,-1.670900345E-2,2.683714159E-2
1.469843750E-1,-1.522965332E-2,2.041715687E-2,9.485937953E-3,2.718061172E-2
1.569333750E-1,-5.908424123E-3,1.113741092E-2,-2.135052323E-2,2.479508500E-2
1.668833750E-1,-4.676420353E-3,1.414851685E-2,-8.626397252E-3,1.721813480E-2
1.768323750E-1,-4.848497515E-3,1.634853174E-2,4.845587611E-3,1.772744024E-2
1.867823750E-1,1.363131692E-2,1.208117437E-2,-3.602060258E-2,4.036398625E-2
1.967313750E-1,1.904152629E-2,8.233281635E-3,1.292760909E-2,2.444360298E-2
2.066813750E-1,2.002009895E-2,1.646742665E-2,-3.087914586E-3,2.610585602E-2
2.166303750E-1,2.681102780E-2,1.139110242E-2,-1.102141678E-2,3.114578710E-2
2.265803750E-1,2.508050321E-2,5.606068256E-3,-1.291065216E-3,2.573181867E-2
2.365293750E-1,2.111313998E-2,-6.059766510E-3,-2.688842118E-2,3.471991710E-2
2.464793750E-1,1.381843239E-3,-1.896088497E-2,4.845587611E-3,1.961897981E-2
2.564283750E-1,-6.315257857E-3,-3.749781482E-2,-8.476123810E-3,3.895912311E-2
2.663783750E-1,-2.260273187E-2,-5.464952559E-2,-2.060207963E-2,6.262507341E-2
2.763273750E-1,-3.497840035E-2,-5.888700277E-2,-1.292234659E-3,6.850428787E-2
2.862773750E-1,-3.923631538E-2,-5.486386259E-2,-2.359585404E-2,7.145835284E-2
2.962263750E-1,-3.984975682E-2,-4.899360068E-2,5.379438400E-5,6.315361368E-2
3.061763750E-1,-3.136987343E-2,-4.234646766E-2,-1.611317217E-2,5.510831697E-2
3.161253750E-1,-1.938666733E-2,-1.795000645E-2,-2.344850421E-2,3.532531601E-2
3.260753750E-1,-6.745695155E-3,2.685151063E-4,-4.737998843E-3,8.247735236E-3
3.360243750E-1,-1.285969916E-2,9.898212338E-3,-1.955718219E-2,2.541318251E-2
3.459743750E-1,6.341556623E-3,8.079120708E-3,-1.671251178E-2,1.961620712E-2
3.559233750E-1,2.489447496E-3,1.787737763E-2,-8.031150699E-3,1.975594497E-2
3.658733750E-1,2.419714881E-3,2.014783320E-2,-1.207274616E-2,2.361231464E-2
3.758223750E-1,6.491706725E-3,1.419514840E-2,-3.841035962E-3,1.607476443E-2
3.857723750E-1,4.412838835E-3,3.005062281E-3,-1.042733967E-2,1.171464718E-2
3.957213750E-1,9.851293000E-3,5.120827015E-3,-1.641430378E-2,1.981666500E-2
4.056713750E-1,2.637217599E-3,-2.074706317E-3,4.391258955E-3,5.526524964E-3
4.156203750E-1,8.568820450E-3,8.047253382E-3,-1.162543416E-2,1.653280649E-2
4.255703750E-1,1.460090405E-2,3.580766344E-3,-1.880990803E-2,2.407947107E-2
4.355193750E-1,2.069384437E-3,-1.093127373E-2,-1.595705152E-3,1.123927810E-2
4.454693750E-1,-5.312040104E-3,-2.955611282E-2,-1.057761312E-2,3.183814496E-2
4.554183750E-1,-1.100017495E-2,-3.095732496E-2,-7.732942700E-3,3.375141805E-2
4.653683750E-1,-5.756556401E-3,-3.283984518E-2,5.005216599E-4,3.334432328E-2
4.753173750E-1,-1.610073770E-2,-1.924243754E-2,-3.241111636E-3,2.529841816E-2
4.852673750E-1,-2.604554504E-2,-1.539843229E-2,-1.327084064E-2,3.303933027E-2
4.952163750E-1,-2.556956341E-2,1.609326880E-2,-1.551675618E-2,3.396418108E-2
5.051663750E-1,-2.138399397E-2,3.070845284E-2,-7.882046700E-3,3.824148186E-2
5.151153750E-1,-1.676189791E-2,3.747329763E-2,-7.134187818E-3,4.166660405E-2
5.250653750E-1,-1.270350541E-2,4.179871602E-2,-1.267208576E-2,4.548728909E-2
5.350143750E-1,1.996751055E-3,3.287268095E-2,-4.738583565E-3,3.327242615E-2
5.449643750E-1,1.158915401E-2,2.052648610E-2,-1.446835041E-2,2.765824083E-2
5.549133750E-1,1.481920162E-2,1.025546808E-4,-2.493252754E-3,1.502782631E-2
5.648633750E-1,1.180772568E-2,-2.931920009E-2,-1.267208576E-2,3.405318835E-2
5.748123750E-1,1.095351599E-2,-4.485704735E-2,-2.180251300E-2,5.106352694E-2
5.847623750E-1,1.258652912E-2,-5.810927284E-2,5.262494087E-5,5.945680007E-2
5.947113750E-1,1.268665355E-2,-6.034592876E-2,-2.492083311E-3,6.171541765E-2
6.046613750E-1,7.289659800E-3,-4.991186935E-2,-8.928698301E-3,5.122553558E-2
6.146103750E-1,2.880808949E-3,-4.090926316E-2,-5.187065005E-3,4.133730175E-2
6.245603750E-1,-7.941245190E-3,-2.400663922E-2,-1.341994464E-2,2.862650897E-2
6.345093750E-1,-1.904391086E-2,-7.580270986E-3,-1.312173665E-2,2.433744074E-2
6.444593750E-1,-2.364892666E-2,1.682335306E-3,-2.644110918E-3,2.385567662E-2
6.544083750E-1,-2.620522428E-2,1.838623158E-2,-1.087816000E-2,3.380978639E-2
6.643583750E-1,-2.371506872E-2,2.365698942E-2,-2.135637045E-2,3.972596370E-2
6.743073750E-1,-2.140163612E-2,2.668272709E-2,-1.836142659E-2,3.882190027E-2
6.842573750E-1,-1.153417648E-2,2.318847670E-2,-1.506769001E-2,2.996294313E-2
6.942063750E-1,-4.211201258E-3,2.084263774E-2,-1.506710529E-2,2.606084085E-2
7.041563750E-1,3.990066871E-3,9.634393277E-3,-3.690762520E-3,1.106182152E-2
7.141053750E-1,1.194482918E-2,5.186553374E-3,-9.079556465E-3,1.587506301E-2
7.240553750E-1,1.355511582E-2,-6.167163416E-3,-2.090496540E-2,2.566695635E-2
7.340043750E-1,2.092854156E-2,-1.639210263E-2,-5.637300611E-3,2.717506281E-2
7.439543750E-1,1.390579802E-2,-2.574572906E-2,-6.086366773E-3,2.988741614E-2
7.539033750E-1,7.190206884E-3,-3.135090653E-2,-2.330056965E-2,3.971769079E-2
7.638533750E-1,6.993498327E-4,-4.114754634E-2,-9.378933907E-3,4.220869651E-2
7.738023750E-1,-7.157247774E-3,-4.861625427E-2,-1.476655841E-2,5.131098930E-2
7.837523750E-1,-2.512746823E-2,-3.637778067E-2,-1.731126666E-2,4.748065437E-2
7.937013750E-1,-1.585702301E-2,-3.058129418E-2,2.897880077E-3,3.456961732E-2
8.036538750E-1,-1.460658681E-2,-1.733220700E-2,-1.192071855E-2,2.560978931E-2
8.136028750E-1,-2.868665013E-2,-1.347679511E-2,-8.477877975E-3,3.280887558E-2
8.235528750E-1,-1.325242192E-2,-6.430872842E-3,-1.775799394E-2,2.307225955E-2
8.335018750E-1,-9.920166805E-3,5.992793050E-3,-1.910577714E-2,2.234623007E-2
8.434518750E-1,-1.218198859E-3,8.504688372E-3,-1.551324785E-2,1.773343147E-2
8.534008750E-1,-5.439509405E-4,1.203847599E-2,-5.186480284E-3,1.311946510E-2
8.633508750E-1,6.192141990E-3,1.054596506E-2,-1.177278399E-2,1.697523032E-2
8.732998750E-1,7.867547432E-3,8.808309613E-3,-3.988970518E-3,1.246581352E-2
8.832498750E-1,1.832522410E-2,1.428774454E-2,-6.534263492E-3,2.413814578E-2
8.931988750E-1,1.303574603E-2,4.688946186E-3,-1.551675618E-2,2.080112048E-2
9.031488750E-1,1.134611998E-2,1.007443280E-3,-1.521854818E-2,1.900930270E-2
9.130978750E-1,-5.701062670E-3,-6.041740640E-3,-5.787574053E-3,1.012426585E-2
9.230478750E-1,2.985003591E-4,-1.551896259E-2,-1.117812216E-2,1.912793029E-2
9.329968750E-1,-1.104701662E-2,-2.969509383E-2,-7.735866308E-3,3.261408900E-2
9.429468750E-1,-1.790895717E-2,-3.434204513E-2,-1.312524498E-2,4.089472907E-2
9.528958750E-1,-2.213025858E-2,-3.623027095E-2,-1.162777305E-2,4.401801885E-2
9.628458750E-1,-2.050865209E-2,-4.345989172E-2,-1.299251318E-3,4.807343396E-2
9.727948750E-1,-2.043663997E-2,-3.653907245E-2,-1.448940039E-3,4.189104315E-2
9.827448750E-1,-1.588624082E-2,-3.363308850E-2,-1.117870688E-2,3.883968045E-2
9.926938750E-1,-4.485051949E-3,-1.484284630E-2,-8.783102632E-3,1.782045648E-2
1.002643875E0,-8.168240497E-3,5.677934191E-3,-5.789328218E-3,1.150979629E-2
1.012592875E0,7.545279055E-3,4.929997651E-3,-1.611726522E-2,1.846624897E-2
1.022542875E0,4.582545133E-3,1.159103152E-2,2.294447422E-3,1.267344549E-2
1.032491875E0,1.183275907E-2,2.052965181E-2,-1.102784872E-2,2.613607159E-2
1.042441875E0,7.324030465E-3,3.425327708E-2,-4.141582847E-3,3.527153416E-2
1.052390875E0,7.974240845E-3,2.974808879E-2,3.490787745E-4,3.080031103E-2
1.062340875E0,7.084367713E-3,9.093128401E-3,-1.626636922E-2,1.993659995E-2
1.072289875E0,-2.805192573E-3,1.292239227E-3,-2.375080526E-2,2.395077740E-2
1.082239875E0,-8.661672408E-3,-7.123658261E-3,-1.357197225E-2,1.760595089E-2
1.092188875E0,-1.323672123E-2,-1.324550576E-2,-9.680065513E-3,2.107979791E-2
1.102138875E0,-1.958639086E-2,-2.833309458E-2,-7.883216143E-3,3.533462964E-2
1.112087875E0,-1.818700598E-2,-3.437393073E-2,-1.432041585E-2,4.144162895E-2
1.122037875E0,-1.442738336E-2,-3.589573712E-2,-1.491917074E-2,4.146365866E-2
1.131986875E0,-2.112375177E-2,-4.585611267E-2,-1.521796346E-2,5.273122765E-2
1.141936875E0,-1.250341186E-2,-4.640891666E-2,-1.596640706E-2,5.064631288E-2
1.151885875E0,-8.446942549E-3,-1.629556876E-2,-4.890611172E-3,1.899511719E-2
1.161835875E0,-8.117931602E-3,-1.651432314E-2,-1.462096274E-2,2.350311115E-2
1.171784875E0,-7.930108071E-3,-5.173826544E-4,-9.082480073E-3,1.206837782E-2
1.181734875E0,6.158351479E-3,3.268721458E-3,-1.132839561E-2,1.330196902E-2
1.191683875E0,4.160709637E-3,2.113033445E-2,-1.611843467E-2,2.689993448E-2
1.201633875E0,1.307799216E-2,2.832348322E-2,-1.566936851E-2,3.491106830E-2
1.211583875E0,9.164505545E-3,2.182655511E-2,-1.462154746E-2,2.782402415E-2
1.221532875E0,4.039804749E-3,2.456314797E-2,-2.914135337E-2,3.832605819E-2
1.231482875E0,-8.594575608E-3,1.987675537E-2,-2.645865083E-3,2.181634103E-2
1.241431875E0,-1.149728421E-2,-1.497645518E-3,-1.477065146E-2,1.877771634E-2
1.251381875E0,-6.917420570E-3,-2.111221265E-2,-1.402220786E-2,2.627163001E-2
1.261330875E0,-1.570589076E-2,-2.660419168E-2,4.794716835E-5,3.089434121E-2
1.271280875E0,-1.132447614E-2,-2.773470514E-2,-1.252532065E-2,3.247062190E-2
1.281229875E0,-1.303996699E-2,-3.434148325E-2,-8.633998632E-3,3.773491941E-2
1.291179875E0,-1.019235469E-2,-3.125534110E-2,-6.538356543E-3,3.351910720E-2
1.301128875E0,-8.146107872E-3,-3.273586524E-2,-3.693101406E-3,3.393574729E-2
1.311078875E0,-5.446315929E-3,-2.606198577E-2,-2.197383642E-3,2.671550026E-2
1.321027875E0,1.173897064E-3,-9.357047961E-3,-9.232753515E-3,1.319758002E-2
1.330977875E0,-6.404437032E-4,-2.062335801E-3,-1.028174400E-2,1.050607714E-2
1.340926875E0,9.829598917E-3,1.886051386E-3,1.543080211E-3,1.012715662E-2
1.350876875E0,6.099322010E-3,1.071924821E-2,-4.445053339E-3,1.310963426E-2
1.360825875E0,-1.007365622E-4,1.695897877E-2,-2.106050134E-2,2.704000417E-2
1.370775875E0,4.590151082E-3,2.186073620E-2,-1.028291345E-2,2.459064015E-2
1.380724875E0,-1.848583524E-3,1.668746011E-2,-5.193496943E-3,1.757444157E-2
1.390674875E0,-4.791601365E-3,1.425704665E-2,-1.567170739E-2,2.172153852E-2
1.400623875E0,-1.476749488E-2,6.873360886E-3,1.691599488E-3,1.637630922E-2
1.410573875E0,-1.586970416E-2,-1.087724180E-2,-9.983536005E-3,2.167562896E-2
1.420522875E0,-2.182289603E-2,-1.249370457E-2,-1.312641442E-2,2.836607482E-2
1.430472875E0,-9.759948528E-3,-1.574716388E-2,-9.835601449E-3,2.097543376E-2
1.440421875E0,-1.034726936E-2,-2.737876960E-2,-9.087742567E-3,3.064718703E-2
1.450371875E0,-6.066111652E-3,-3.423959780E-2,-3.400155902E-3,3.493864376E-2
1.460320875E0,-9.628404449E-3,-2.797214321E-2,-3.551014066E-3,2.979524575E-2
1.470270875E0,-8.344159462E-5,-2.383063574E-2,-5.795760155E-3,2.452543574E-2
1.480219875E0,2.331220927E-3,-1.709112356E-2,-2.780117154E-2,3.271767465E-2
1.490169875E0,6.532979845E-3,-1.625070965E-2,-2.241237760E-2,2.844433264E-2
1.500118875E0,9.643712277E-3,2.424182519E-3,-1.462914884E-2,1.768869252E-2
1.510068875E0,2.485870644E-3,3.837600723E-3,-1.762292325E-2,1.820643173E-2
1.520018875E0,9.588748449E-4,1.422974747E-3,-1.103603482E-2,1.116863298E-2
1.529967875E0,-6.818607193E-3,2.299508918E-4,-8.191364408E-3,1.066042834E-2
1.539917875E0,-3.309345902E-3,8.568863848E-3,-2.256206632E-2,2.436029627E-2
1.549866875E0,-1.060176942E-2,4.620458388E-3,-2.196331143E-2,2.482203053E-2
1.559816875E0,-1.134296339E-2,6.980200480E-3,-5.346693993E-3,1.435176484E-2
1.569765875E0,-1.177659839E-2,1.269607533E-2,-9.687082171E-3,1.984233251E-2
1.579715875E0,-1.399544314E-2,-1.756837056E-4,-9.537393451E-3,1.693709442E-2
1.589664875E0,-1.838346329E-2,-3.589400123E-3,-7.291477919E-3,2.009978024E-2
1.599614875E0,-6.951179104E-3,-1.340826392E-2,-1.357840419E-2,2.030944343E-2
1.609563875E0,-1.595207225E-3,-1.515860051E-2,-1.612194300E-2,2.218659283E-2
1.619513875E0,-6.377996653E-3,-1.380387831E-2,-1.866665125E-2,2.407633208E-2
1.629462875E0,-1.650655274E-3,-2.205078213E-2,-2.106225550E-2,3.053817712E-2
1.639412875E0,1.030147836E-2,-2.315723750E-2,-1.058346033E-2,2.746611981E-2
1.649361875E0,5.563611989E-3,-3.106521979E-2,-9.385950565E-3,3.292563936E-2
1.659311875E0,5.117314118E-3,-2.002754729E-2,-9.235677123E-3,2.264039060E-2
1.669260875E0,9.334239252E-3,-1.392434694E-2,1.691599488E-3,1.684864887E-2
1.679210875E0,-5.158016221E-3,-6.586258030E-3,-1.567287683E-2,1.776578156E-2
1.689159875E0,2.595103942E-3,-1.992639732E-3,-1.193124354E-2,1.237173189E-2
1.699109875E0,-5.436745682E-3,5.174054950E-3,-5.344939828E-3,9.213980139E-3
1.709058875E0,-3.169277678E-3,1.322886860E-2,-1.582256556E-2,2.086626143E-2
1.719008875E0,-1.028449402E-2,1.144379132E-2,-1.642190516E-2,2.250355852E-2
1.728957875E0,-1.318628899E-2,1.060688574E-2,-1.387719691E-2,2.188517390E-2
1.738907875E0,-1.609886020E-2,1.180500307E-3,-7.589685917E-3,1.783732640E-2
1.748857875E0,-1.678029837E-2,6.558520300E-3,-9.835016727E-3,2.052608477E-2
1.758806875E0,-1.041760040E-2,8.157569328E-3,-1.821758509E-2,2.251561107E-2
1.768756875E0,-1.531011192E-4,-3.282485255E-3,-3.548090458E-3,4.836020606E-3
1.778705875E0,-3.686993807E-3,-1.907154352E-2,-1.252882898E-2,2.311469773E-2
1.788655875E0,1.122953198E-3,-1.273737815E-2,-6.541280150E-3,1.436280516E-2
1.798604875E0,-2.129893983E-3,-1.664585580E-2,-1.327668786E-2,2.139839724E-2
1.808551625E0,6.100980244E-3,-3.218050081E-2,-7.887309194E-3,3.369000205E-2
1.818500625E0,2.207579724E-3,-3.190654733E-2,-1.432333946E-2,3.504367595E-2
1.828450625E0,4.520162651E-3,-2.278316644E-2,-6.538941264E-3,2.413011182E-2
1.838399625E0,5.789437853E-3,-1.414767860E-2,-1.102901816E-2,1.884976504E-2
1.848349625E0,1.332968739E-3,-1.098727453E-2,-1.013030112E-2,1.500399973E-2
1.858298625E0,-1.091449040E-2,-2.531663936E-3,-9.980612397E-3,1.500493408E-2
1.868248625E0,-7.004416175E-3,1.090779807E-3,-5.190573335E-3,8.785994428E-3
1.878197625E0,-2.919528480E-3,1.247696463E-2,-1.552026451E-2,2.012652239E-2
1.888147625E0,-9.895023778E-3,2.201034726E-2,-7.022505999E-4,2.414249444E-2
1.898096625E0,-1.455051293E-2,8.070016410E-3,-1.402513146E-2,2.176113287E-2
1.908046625E0,-1.323498077E-2,7.857945208E-3,-4.295949340E-3,1.598021275E-2
1.917995625E0,-1.459734547E-2,2.351827794E-3,-3.547505736E-3,1.520520916E-2
1.927945625E0,-5.072299694E-3,-4.104791069E-3,-8.487233520E-3,1.070563715E-2
1.937894625E0,-2.656440320E-3,-8.864433747E-3,-1.896544397E-2,2.110267580E-2
1.947844625E0,-8.174631321E-3,-1.559846645E-2,-1.372633874E-2,2.232821372E-2
1.957793625E0,1.165624168E-3,-2.204162301E-2,-1.133073449E-2,2.481083168E-2
1.967743625E0,-2.908272590E-3,-1.968612700E-2,-1.147983849E-2,2.297364441E-2
1.977692625E0,1.637791400E-3,-2.620748551E-2,-1.327610314E-2,2.942396254E-2
1.987642625E0,7.941692867E-3,-2.346550453E-2,-4.294779897E-3,2.514250431E-2
1.997591625E0,-6.595933344E-4,-1.588871218E-2,-1.402396202E-2,2.120277692E-2
2.007541625E0,-4.797489694E-3,-1.680125241E-2,-1.177804649E-2,2.107179084E-2
2.017491625E0,-8.904030360E-3,-2.610525973E-3,-1.582022667E-2,1.834056091E-2
2.027440625E0,-6.542084143E-3,5.373006463E-3,-6.689214706E-3,1.078951606E-2
2.037390625E0,-1.369163004E-2,1.068617033E-2,-7.139450312E-3,1.877835776E-2
2.047339625E0,-1.104974380E-2,3.829126828E-3,-2.375489831E-2,2.647742896E-2
2.057289625E0,-9.029718088E-3,1.255110322E-2,-1.492326379E-2,2.148882972E-2
2.067238625E0,-1.171244347E-2,1.653746990E-2,-1.162952721E-2,2.336482711E-2
2.077188625E0,-9.478638070E-3,9.071521112E-3,-8.786026239E-3,1.579022900E-2
2.087137625E0,2.383178920E-3,-2.467125293E-3,-4.444468617E-3,5.614227486E-3
2.097087625E0,1.185445315E-3,-1.138514101E-2,-1.237738609E-2,1.685901548E-2
2.107036625E0,2.862029336E-4,-8.328182402E-3,-1.327610314E-2,1.567467540E-2
2.116986625E0,4.466847922E-3,-9.491700658E-3,-1.716800988E-2,2.011928614E-2
2.126935625E0,2.939372468E-3,-1.741633839E-2,-1.267734826E-2,2.174129509E-2
2.136885625E0,1.784771215E-4,-2.082650993E-2,-5.042638779E-3,2.142903581E-2
2.146834625E0,-5.540766735E-3,-3.007479739E-2,-1.567112267E-2,3.436244491E-2
2.156784625E0,1.487842295E-3,-1.978364074E-2,-1.282586753E-2,2.362433055E-2
2.166733625E0,-5.427586567E-3,-1.345997066E-2,-9.383611679E-3,1.728240939E-2
2.176683625E0,-9.402592289E-3,-1.954428406E-2,-6.988592148E-3,2.278657941E-2
2.186633625E0,-1.325344518E-2,-1.268215394E-3,-1.357372642E-2,1.901336972E-2
2.196582625E0,-1.577350833E-2,3.060332173E-4,-1.327493370E-2,2.061846469E-2
2.206532625E0,-8.874839963E-3,1.688495439E-3,-1.611901939E-2,1.847800279E-2
2.216481625E0,-3.898822898E-3,9.992343374E-3,-1.716625571E-2,2.024174106E-2
2.226431625E0,-1.103269095E-3,1.038435579E-2,-6.089875102E-3,1.208878102E-2
2.236380625E0,5.667263023E-3,1.131606620E-2,-9.232168794E-3,1.566538110E-2
2.246330625E0,8.728933660E-4,-2.846310376E-3,-1.402103841E-2,1.433362982E-2
2.256279625E0,3.124596728E-3,-6.727769785E-4,-5.488196611E-3,6.351065707E-3
2.266229625E0,-6.554838382E-3,-6.274414142E-3,-5.937262774E-3,1.084367411E-2
2.276178625E0,3.132280335E-3,-1.471931473E-2,-1.866080403E-2,2.397279736E-2
2.286128625E0,-6.230619410E-4,-6.545279555E-3,-8.332867026E-3,1.061440359E-2
2.296077625E0,6.126598357E-3,-1.669296472E-2,-1.911045492E-2,2.610363510E-2
2.306027625E0,3.028875981E-3,-2.096872289E-2,-1.446951985E-2,2.565596294E-2
2.315976625E0,-1.174934031E-3,-2.435764118E-2,-9.679480791E-3,2.623675860E-2
2.325926625E0,-1.145015017E-2,-1.925544531E-2,-1.057819784E-2,2.477451074E-2
2.335875625E0,-1.124794157E-2,-5.685926147E-3,-1.806204915E-2,2.202461272E-2
2.345825625E0,-1.240386302E-2,-1.398733926E-2,-1.476948202E-2,2.382517737E-2
2.355774625E0,-9.884005431E-3,-1.674899749E-2,-1.327201009E-2,2.354503625E-2
2.365724625E0,-1.177653900E-2,-1.193848175E-2,-1.372166097E-2,2.166790708E-2
2.375673625E0,-1.427303514E-2,-1.446062112E-3,-1.432041585E-2,2.027029694E-2
2.385623625E0,-1.505721984E-3,5.021502008E-3,-1.611668050E-2,1.694786333E-2
2.395573625E0,-2.959006322E-3,1.454345744E-2,-7.285045981E-3,1.653299028E-2
2.405522625E0,1.342867892E-3,9.092712700E-3,-1.551734090E-2,1.803520410E-2
2.415472625E0,3.046344537E-3,-6.171251899E-3,-1.911045492E-2,2.031191897E-2
2.425421625E0,1.122377613E-3,-4.722202225E-3,-1.941041708E-2,2.000807878E-2
2.435371625E0,8.451396483E-3,9.004346654E-4,-8.490157127E-4,8.541528714E-3
2.445320625E0,4.622991420E-3,-9.540349036E-4,-1.626695395E-2,1.693800528E-2
2.455270625E0,1.671568207E-3,-9.113465748E-3,-2.794384360E-3,9.677705418E-3
2.465219625E0,-7.517989003E-3,-4.226461120E-3,-1.357314169E-2,1.608145851E-2
2.475169625E0,-4.228847972E-3,-1.539200263E-2,-9.532130957E-3,1.859189127E-2
2.485118625E0,-1.133102685E-2,-1.205332929E-2,-1.192715049E-2,2.039440696E-2
2.495068625E0,-4.718072629E-3,-2.271774843E-2,-1.028115928E-2,2.537830844E-2
2.505017625E0,1.130271354E-3,-1.333740297E-2,-1.058112144E-2,1.706235512E-2
2.514967625E0,-3.380860090E-3,-1.497840349E-2,-1.731711388E-2,2.314444251E-2
2.524916625E0,-5.663197380E-3,-1.746053283E-2,-1.342403769E-2,2.274086188E-2
2.534866625E0,-1.474361722E-3,-5.779881310E-4,-7.436488867E-3,7.603234801E-3
2.544815625E0,-6.372359572E-3,7.000704564E-3,-2.285442710E-2,2.473745478E-2
2.554765625E0,-5.976324915E-3,-2.722545834E-3,4.736244678E-5,6.567416426E-3
2.564715625E0,5.295576537E-3,1.239544622E-2,-7.436488867E-3,1.539453100E-2
2.574664625E0,7.092215773E-4,-1.733270036E-3,-2.016119957E-2,2.024799221E-2
2.584614625E0,-6.654606499E-3,7.323121405E-3,-1.177863121E-2,1.538336920E-2
2.594563625E0,-2.649419094E-3,2.967217548E-3,-1.492267907E-2,1.544377389E-2
2.604513625E0,2.972030081E-5,-9.165946792E-3,-1.133014977E-2,1.457352935E-2
2.614462625E0,-8.095547729E-3,-5.918305004E-3,-4.444468617E-3,1.096893470E-2
2.624412625E0,-4.321434977E-3,-8.932085575E-3,-8.036997914E-3,1.276911463E-2
2.634361625E0,-4.157964187E-4,-1.643249410E-2,-1.761766076E-2,2.409526343E-2
2.644311625E0,-1.728820670E-3,-2.007340682E-2,-4.743261337E-3,2.069852677E-2
2.654260625E0,-1.102958461E-3,-1.384944776E-2,-1.477299035E-2,2.027966874E-2
2.664210625E0,-1.673331507E-3,-2.499356699E-2,-5.519771576E-4,2.505560033E-2
2.674159625E0,-3.432772402E-4,-2.705664968E-2,-9.533885121E-3,2.868928540E-2
2.684109625E0,-2.474240167E-3,-1.581223471E-2,-7.887893915E-3,1.784285575E-2
2.694058625E0,-3.889033380E-3,-1.577870459E-2,-2.240828454E-2,2.768073907E-2
2.704008625E0,3.101171320E-4,-3.039014961E-3,-1.911571741E-2,1.935826533E-2
2.713957625E0,-6.845892677E-3,1.406637946E-2,-8.788365126E-3,1.794337313E-2
2.723907625E0,6.534172129E-4,7.086919018E-3,-5.196420550E-3,8.812159880E-3
2.733856625E0,4.801386315E-4,-3.094006197E-3,-1.118396938E-2,1.161398203E-2
2.743806625E0,3.044384806E-3,6.982436583E-3,-1.926657557E-2,2.071771305E-2
2.753755625E0,-1.238470882E-2,1.024131370E-2,-1.133424282E-2,1.966546667E-2
2.763705625E0,-1.476842221E-2,1.336045379E-3,-1.253175259E-2,1.941484315E-2
2.773655625E0,-6.175664719E-4,1.276549960E-3,-5.196420550E-3,5.386441746E-3
2.783604625E0,-5.533092264E-3,-9.505765953E-3,-2.255972743E-2,2.509812738E-2
2.793554625E0,-8.168354700E-3,-1.434537159E-2,-1.013497889E-2,1.937084153E-2
2.803503375E0,-6.855695900E-3,-1.326958898E-2,-8.542782068E-4,1.496035926E-2
2.813453375E0,2.213171124E-4,-2.378618091E-2,-1.642132044E-2,2.890486375E-2
2.823402375E0,-1.397000318E-3,-2.315571631E-2,-2.351165414E-3,2.331666328E-2
2.833352375E0,-9.203088032E-3,-2.641624024E-2,-2.226093471E-2,3.575001807E-2
2.843301375E0,-7.375924503E-3,-8.915060128E-3,-1.238147914E-2,1.694649182E-2
2.853251375E0,-8.865361079E-3,-1.553124402E-2,-1.058638394E-2,2.078185971E-2
2.863200375E0,-8.651334713E-3,-6.221489988E-3,-1.986649990E-2,2.254396479E-2
2.873150375E0,-2.592646284E-3,-3.665820491E-3,-1.642365932E-2,1.702635135E-2
2.883099375E0,1.682202830E-3,8.084346657E-4,-1.747148037E-2,1.757088499E-2
2.893049375E0,-1.140414446E-2,8.075150996E-3,-1.073490322E-2,1.762103066E-2
2.902998375E0,-2.524407450E-3,7.873849177E-3,-7.292062640E-3,1.102471366E-2
2.912948375E0,-1.691170083E-3,-2.884865454E-3,-1.762116909E-2,1.793566573E-2
2.922897375E0,-1.096196705E-2,-1.502494595E-3,-9.090081453E-3,1.431962962E-2
2.932847375E0,4.024327900E-3,-4.692660081E-3,-1.343105435E-2,1.478544875E-2
2.942796375E0,1.643254892E-3,-1.034690848E-2,-5.648410320E-3,1.190224100E-2
2.952746375E0,-2.881781962E-3,-1.158777444E-2,-2.076697111E-2,2.395513041E-2
2.962696375E0,-1.008328585E-2,2.606190811E-4,-1.612662077E-2,1.902126371E-2
2.972645375E0,-4.933163370E-3,-8.344063531E-3,-9.989967942E-3,1.391973263E-2
2.982595375E0,-7.882850692E-3,-7.826164677E-3,-1.283463836E-2,1.697398393E-2
2.992544375E0,-1.203990125E-2,-1.359109904E-2,-1.507996917E-2,2.360259870E-2
3.002494375E0,-4.386636000E-3,-1.294325952E-2,3.930498362E-3,1.422038536E-2
3.012443375E0,-6.881871326E-3,-6.908519554E-3,-1.388245940E-2,1.696497788E-2
3.022393375E0,-2.035068590E-3,-1.554656784E-2,-1.159502864E-3,1.572201395E-2
3.032342375E0,3.469440839E-3,-1.598568003E-2,-1.073958099E-2,1.956828009E-2
3.042292375E0,-4.208076652E-3,-5.660995538E-4,-1.088985443E-2,1.168834066E-2
3.052241375E0,-1.193147195E-3,2.345592286E-3,-1.103895843E-2,1.134830413E-2
3.062191375E0,-1.466056849E-3,2.875187856E-3,-1.058989227E-2,1.107076538E-2
3.072140375E0,-6.665825844E-3,-2.844439724E-3,-1.418359101E-2,1.592791027E-2
3.082090375E0,-3.085159999E-3,-8.594979888E-3,-1.538227022E-2,1.788871512E-2
3.092039375E0,-5.445891093E-3,-2.931613487E-3,-1.373686373E-2,1.506497636E-2
3.101989375E0,-1.100613180E-2,-6.730857845E-3,-1.448530734E-2,1.939751306E-2
3.111938375E0,4.142226954E-3,-1.296827921E-3,-5.504568815E-3,7.009998904E-3
3.121888375E0,-3.996727215E-3,-8.461343602E-3,-6.252427697E-3,1.125437764E-2
3.131837375E0,-2.876377855E-3,-8.469927132E-3,-2.137040377E-2,2.316694568E-2
3.141787375E0,-5.409725150E-3,-1.296083315E-2,-2.017347872E-2,2.458083737E-2
3.151737375E0,-1.152149077E-2,-6.553351453E-3,-9.546164274E-3,1.633463857E-2
3.161686375E0,-7.206108570E-3,-9.704406832E-3,-1.598219454E-2,2.003831468E-2
3.171636375E0,-6.075672763E-3,-5.819948441E-3,-9.994060993E-3,1.306395248E-2
3.181585375E0,-1.068391367E-3,-6.277588997E-3,-7.748730183E-3,1.002957642E-2
3.191535375E0,-5.092856311E-3,-1.936721164E-3,-9.245617390E-3,1.073170607E-2
3.201484375E0,4.649861204E-4,-5.976585299E-3,-5.502814651E-3,8.137367695E-3
3.211434375E0,-3.974603727E-3,-6.646187422E-3,-1.044254243E-2,1.300061439E-2
3.221383375E0,-4.827173450E-3,-4.099834641E-3,-9.243863225E-3,1.120532262E-2
3.231333375E0,7.583158049E-3,5.565713332E-3,-1.777670503E-2,2.011200369E-2
3.241282375E0,5.234783767E-3,6.165582840E-3,-2.032141328E-2,2.187183601E-2
3.251232375E0,-1.078142513E-2,2.195236618E-3,-6.999117136E-3,1.304016228E-2
3.261181375E0,-4.310361813E-3,2.714090212E-3,-2.017230928E-2,2.080546962E-2
3.271131375E0,-3.754730145E-3,-2.270683972E-3,-7.148805857E-3,8.388052774E-3
3.281080375E0,-1.417414410E-2,3.549374104E-3,-4.155616164E-3,1.519123310E-2
3.291030375E0,-5.199124888E-3,-8.004326597E-3,-2.376542330E-2,2.561045662E-2
3.300979375E0,-5.186302126E-3,-7.220644383E-3,-1.703001559E-2,1.921085282E-2
3.310929375E0,-3.376890379E-3,-1.667511701E-2,-7.749314904E-3,1.869531485E-2
3.320878375E0,-5.779136703E-3,-1.365226640E-2,-1.224114597E-2,1.922572374E-2
3.330828375E0,-7.118190201E-3,-1.711511998E-2,-1.209204197E-2,2.213172932E-2
3.340778375E0,-7.570970259E-3,-1.480851218E-2,-5.805700421E-3,1.761583893E-2
3.350727375E0,1.008827426E-4,-1.152031675E-2,-1.059632421E-2,1.565279407E-2
3.360677375E0,8.976389654E-4,-8.574859528E-3,-1.972792089E-2,2.152962690E-2
3.370626375E0,-8.851167876E-3,-6.352182110E-3,-2.362041235E-2,2.601186787E-2
3.380576375E0,-2.944612121E-3,-1.734884873E-3,-1.344216406E-2,1.386983564E-2
3.390525375E0,-1.086026661E-2,-2.536880749E-3,-1.942912817E-2,2.240250379E-2
3.400475375E0,-3.299369090E-3,-1.050328952E-4,-2.152652442E-2,2.177815700E-2
3.410424375E0,-5.984223224E-3,5.278742951E-3,-1.733582497E-2,1.908420504E-2
3.420374375E0,-8.849893366E-3,6.330387527E-3,-2.816019058E-3,1.123941200E-2
3.430323375E0,-7.241041115E-3,-7.337159291E-4,-1.239609718E-2,1.437477794E-2
3.440273375E0,-9.102936191E-3,-8.060683706E-4,-1.239551246E-2,1.540006243E-2
3.450222375E0,-5.505299717E-3,-3.472072086E-3,-1.643710792E-2,1.767886100E-2
3.460172375E0,-8.214648203E-3,-8.409778469E-3,-1.523901343E-2,1.924661917E-2
3.470121375E0,-6.287437901E-3,-1.151220374E-2,-9.550842047E-3,1.622594509E-2
3.480071375E0,-2.605834496E-3,-1.855314674E-2,-1.628741920E-2,2.482518181E-2
3.490020375E0,1.477614236E-3,-1.811844737E-2,-1.239492774E-2,2.200217518E-2
3.499970375E0,-9.190205885E-3,-1.298066800E-2,-1.239434302E-2,2.016376366E-2
3.509919375E0,-2.934626173E-3,-2.239724336E-2,-1.553780615E-2,2.741663657E-2
3.519869375E0,-6.485526036E-3,-8.544465427E-3,-3.263331056E-3,1.121246034E-2
3.529819375E0,-1.640020651E-3,-7.631820131E-3,-1.583718359E-2,1.765646427E-2
3.539768375E0,1.243858086E-4,2.716164147E-3,-1.239375830E-2,1.268850914E-2
3.549718375E0,-5.225163270E-3,3.393600625E-4,-2.002788305E-2,2.070105302E-2
3.559667375E0,-8.284330568E-3,-5.867096186E-3,-1.882978857E-2,2.139191174E-2
3.569617375E0,-9.730579974E-3,-6.765495746E-3,-1.493729711E-2,1.906774670E-2
3.579566375E0,-1.062112005E-2,5.730198249E-3,-2.855955541E-2,3.100470236E-2
3.589516375E0,-1.038381446E-2,1.224075082E-2,-1.598511815E-2,2.265355570E-2
3.599465375E0,-2.882937700E-3,1.494607707E-3,-1.987702489E-2,2.014053873E-2
3.609415375E0,-8.897863375E-4,-1.766797879E-3,-1.763169408E-2,1.774232033E-2
3.619364375E0,-1.822590823E-3,-3.479529570E-3,-1.493729711E-2,1.544512247E-2
3.629314375E0,-3.541731611E-3,-5.680688778E-3,-7.901342511E-3,1.035593073E-2
3.639263375E0,-8.231984284E-3,-8.963578313E-3,-1.194235325E-2,1.705083876E-2
3.649213375E0,-4.851978435E-3,-2.353838688E-2,-9.097682834E-3,2.569757157E-2
3.659162375E0,-5.355154183E-3,-1.631929566E-2,-1.029577732E-2,2.002498734E-2
3.669112375E0,-9.972951631E-3,-1.189088405E-2,-2.047519505E-2,2.569214861E-2
3.679061375E0,-9.481301294E-3,-1.142417345E-2,-1.179324925E-2,1.896015668E-2
3.689011375E0,-9.355243547E-3,-8.036657588E-3,-1.044605076E-2,1.616256241E-2
3.698960375E0,-9.910532604E-3,-4.233532597E-3,-1.778079808E-2,2.079178287E-2
3.708910375E0,-4.912958499E-3,5.678630832E-3,-2.077398777E-2,2.208942229E-2
3.718860375E0,-7.290386134E-3,-3.442255855E-3,-2.212001681E-3,8.360131984E-3
3.728809375E0,-9.156803666E-3,-7.215235708E-3,-1.867834568E-2,2.201788539E-2
3.738759375E0,-6.957460293E-3,3.510757356E-3,-1.418651462E-2,1.618607018E-2
3.748708375E0,-6.858244920E-3,4.356984221E-3,-1.613188326E-2,1.806257159E-2
3.758658375E0,-8.513993667E-3,-2.757389301E-3,-5.054917932E-3,1.027830138E-2
3.768607375E0,3.325603902E-5,-8.703872859E-3,-1.462388635E-3,8.825932769E-3
3.778557375E0,-3.014614256E-3,-7.494556743E-3,-1.628157198E-2,1.817541928E-2
3.788506375E0,-5.934499050E-3,-6.972541998E-3,-1.822811007E-2,2.039849548E-2
3.798456375E0,-4.782314342E-3,-8.316947068E-3,-1.238908052E-2,1.566944336E-2
3.808405750E0,-1.426432827E-3,-1.387573967E-2,-1.313635468E-2,1.916075877E-2
3.818355750E0,-6.519074435E-3,-8.243226469E-3,-1.044195771E-2,1.481497874E-2
3.828304750E0,-1.009531375E-2,-9.173623547E-3,-6.251258254E-3,1.500496446E-2
3.838254750E0,-6.144788680E-3,-1.121547125E-2,-1.463382661E-2,1.943435372E-2
3.848203750E0,-6.149114706E-3,-1.685443010E-2,-5.802776814E-3,1.885618319E-2
3.858153750E0,-2.021441837E-3,-1.335365412E-2,-1.074133515E-2,1.725637814E-2
3.868102750E0,1.400801009E-3,-1.534280151E-2,-1.493261933E-2,2.145569672E-2
3.878052750E0,6.293888111E-4,1.536837851E-3,-4.753786325E-3,5.035522345E-3
3.888001750E0,-8.420821941E-3,-3.184014489E-3,-1.298608124E-2,1.580147134E-2
3.897951750E0,-4.958694689E-3,-8.045302788E-3,-1.029168427E-2,1.397262735E-2
3.907901750E0,-8.149291864E-3,-4.322047108E-3,-7.447598577E-3,1.185570637E-2
3.917850750E0,-1.631158465E-3,-1.350551956E-2,-1.373394012E-2,1.933082636E-2
3.927800750E0,-7.365947692E-3,-4.257003686E-3,-4.004173279E-3,9.402801148E-3
3.937749750E0,-8.877681345E-3,-1.596657608E-3,-1.358308196E-2,1.630529537E-2
3.947699750E0,-8.369667940E-3,6.873258103E-3,-1.702592254E-2,2.017857915E-2
3.957648750E0,-9.381962582E-3,-4.947310891E-3,-1.552903533E-2,1.880553230E-2
3.967598750E0,-5.506012347E-3,-3.953672522E-3,-2.765323699E-2,2.847190219E-2
3.977547750E0,7.138810772E-4,-9.533786906E-3,-1.148802459E-2,1.494581640E-2
3.987497750E0,-6.237065052E-3,-9.380025691E-3,-1.986942351E-2,2.284031202E-2
3.997446750E0,8.779959753E-6,-1.583734348E-3,-1.897129118E-2,1.903728397E-2
4.007396750E0,-1.105490580E-2,-1.397680971E-2,-1.088810027E-2,2.088331581E-2
4.017345750E0,-3.293366558E-3,-1.419608715E-2,-8.343392015E-3,1.679247879E-2
4.027295750E0,-2.852495634E-3,-1.506752099E-3,-1.807257414E-2,1.835823982E-2
4.037244750E0,-1.087906906E-2,-3.504128989E-3,-9.689421058E-3,1.498392285E-2
4.047194750E0,-9.076317656E-3,-3.618962823E-3,-5.049070716E-3,1.099861579E-2
4.057143750E0,-1.048535502E-2,-6.756238416E-3,-1.672362149E-2,2.086310003E-2
4.067093750E0,3.050693404E-4,-3.255010194E-3,-2.076580167E-2,2.102157648E-2
4.077042750E0,-2.066058833E-3,2.001177580E-3,-3.401910067E-3,4.454918957E-3
4.086992750E0,-3.317582253E-3,-5.641576387E-3,-1.522673428E-2,1.657368918E-2
4.096941750E0,-3.399840700E-3,1.153498504E-2,-2.555467129E-2,2.824280477E-2
4.106891750E0,-4.030695884E-3,5.971354782E-3,-1.717268765E-2,1.862269552E-2
4.116840750E0,-4.133794173E-3,-6.055193804E-3,-2.196214199E-2,2.315360246E-2
4.126790750E0,-3.910636101E-3,-6.184275658E-3,-2.016529262E-2,2.145174507E-2
4.136740750E0,1.644013203E-3,-6.052959985E-3,-1.732179165E-2,1.842242031E-2
4.146689750E0,9.151806124E-4,-1.578264917E-2,-9.537978172E-3,1.846354782E-2
4.156639750E0,-7.797038234E-3,-1.313253115E-2,-8.190194964E-3,1.733021850E-2
4.166588750E0,-4.204705367E-3,-1.951040904E-2,-1.387778163E-2,2.430901954E-2
4.176538750E0,1.749738171E-3,-1.502246546E-2,-1.881692469E-2,2.414151418E-2
4.186487750E0,-7.472261949E-3,-1.701882822E-2,6.431937218E-4,1.859808890E-2
4.196437750E0,-5.516541903E-3,-8.634245312E-3,-1.028291345E-2,1.451622319E-2
4.206386750E0,-3.679387858E-3,-1.562264103E-2,-1.162894249E-2,1.982011885E-2
4.216336750E0,-6.268777060E-3,-7.278741952E-3,-1.551967978E-2,1.825207141E-2
4.226285750E0,-1.246418527E-2,4.618797870E-4,-1.791528404E-2,2.182949036E-2
4.236235750E0,-4.136114786E-3,-7.322445321E-3,-3.394893408E-3,9.069231073E-3
4.246184750E0,-2.390825981E-4,2.662113947E-3,-5.640224218E-3,6.241485431E-3
4.256134750E0,-7.143739793E-3,-8.119027955E-3,-1.851462364E-2,2.144161658E-2
4.266083750E0,-1.010759748E-2,-1.918489728E-3,-2.165808678E-2,2.397742381E-2
4.276033750E0,4.250939484E-3,2.015859573E-3,-9.982366562E-3,1.103547998E-2
4.285982750E0,2.246993612E-3,2.568129092E-3,-1.357431114E-2,1.399664925E-2
4.295932750E0,-4.702568371E-3,1.612497624E-3,-8.784272075E-3,1.009345004E-2
4.305881750E0,-2.028929014E-3,-5.243444955E-4,2.442381978E-3,3.218185796E-3
4.315831750E0,-6.843192908E-3,-7.107267785E-3,-1.971154869E-2,2.204286043E-2
4.325780750E0,-4.955076724E-3,-1.365271408E-2,-6.239563823E-3,1.580764194E-2
4.335730750E0,-8.214538568E-3,-1.552922719E-2,-8.933960795E-3,1.970916529E-2
4.345680750E0,-4.088752340E-3,-1.784655641E-2,-2.495123863E-2,3.094804971E-2
4.355629750E0,3.196060667E-3,-1.579143827E-2,1.202187538E-2,2.010248278E-2
4.365579750E0,-1.203054114E-2,-7.979521612E-3,-2.210656822E-2,2.640278477E-2
4.375528750E0,-1.306797881E-3,-2.717022956E-3,-1.132898033E-2,1.172329858E-2
4.385478750E0,-9.406470638E-3,-1.168430831E-2,-1.342520714E-2,2.013059704E-2
4.395427750E0,-5.112974388E-3,-2.618789733E-3,-2.001268029E-2,2.082085347E-2
4.405377750E0,5.727484776E-3,9.440539805E-3,1.441572547E-2,1.815877238E-2
4.415326750E0,6.463215253E-3,-4.905928136E-3,-3.857466638E-2,3.941885550E-2
4.425276750E0,-2.647144161E-3,-4.254022976E-3,-6.092798710E-3,7.888363570E-3
4.435225750E0,-7.431811094E-4,-1.447779732E-4,7.529459596E-3,7.567432895E-3
4.445175750E0,-4.953939258E-3,-1.189200324E-3,-2.899517298E-2,2.943935746E-2
4.455124750E0,-6.016588476E-3,-9.286666671E-3,3.635798693E-3,1.164734076E-2
4.465074750E0,-1.120143794E-3,-4.224195324E-3,-2.824848354E-2,2.858453027E-2
4.475023750E0,1.841333890E-3,-9.603741076E-3,-1.657393277E-2,1.924363792E-2
4.484973750E0,-7.459987365E-3,-1.819869584E-2,1.201661289E-2,2.304870771E-2
4.494922750E0,-6.360226599E-3,-1.256902173E-2,-3.813027799E-2,4.064911917E-2
4.504872750E0,-1.059634248E-2,-1.195151465E-2,-4.300627112E-3,1.654135937E-2
4.514821750E0,-6.385228015E-3,-1.111701876E-2,-1.702533782E-2,2.131246984E-2
4.524771750E0,-4.208720759E-3,-1.406846938E-3,-2.196506560E-2,2.240885217E-2
4.534720750E0,-8.689752747E-3,-1.297644704E-2,1.536063552E-3,1.569265662E-2
4.544670750E0,-5.367278019E-3,2.997042916E-3,-3.214389861E-2,3.272644431E-2
4.554619750E0,-1.568008536E-3,-4.626636794E-3,-5.200513601E-3,7.135107603E-3
4.564569750E0,-6.676250333E-3,-7.164152514E-3,-9.241524339E-3,1.346488663E-2
4.574518750E0,-6.538237771E-3,-2.899871785E-3,-2.331226408E-2,2.438482041E-2
4.584468750E0,-5.528030768E-3,-6.446993798E-3,1.081734896E-2,1.375274124E-2
4.594418750E0,-3.577870145E-3,1.279564931E-3,-1.942094207E-2,1.978917462E-2
4.604367750E0,-1.697615725E-3,-7.791017429E-3,-1.133833587E-2,1.386144697E-2
4.614317750E0,-2.118350300E-3,-3.313422964E-3,-7.147051692E-3,8.157605508E-3
4.624266750E0,2.435273957E-5,-1.067547860E-2,-2.136748016E-2,2.388588798E-2
4.634216750E0,5.243641385E-3,-5.528444184E-3,-5.200513601E-3,9.225226924E-3
4.644165750E0,-5.332318065E-3,-3.460272588E-4,-3.104871511E-3,6.180095299E-3
4.654115750E0,-7.682807394E-3,-1.061243603E-2,-2.106751800E-2,2.480906371E-2
4.664064750E0,2.040006747E-3,-1.278444138E-2,-6.548881531E-3,1.450832238E-2
4.674014750E0,-7.340069194E-3,-1.455898225E-2,-1.298608124E-2,2.084415712E-2
4.683963750E0,-3.361852071E-3,-1.318991609E-2,-3.256314397E-3,1.399569646E-2
4.693913750E0,-7.452381416E-3,-1.099605220E-2,-7.148221135E-3,1.508470146E-2
4.703862750E0,-1.028539394E-2,-1.427591078E-2,-1.867425263E-2,2.565772142E-2
4.713812750E0,-6.004405254E-3,-9.798996965E-4,-5.801607370E-3,8.406648200E-3
4.723761750E0,-8.895044834E-3,-2.267141382E-3,-1.702826142E-2,1.934485564E-2
4.733711750E0,-9.126800140E-3,-4.040033156E-3,-2.226678193E-2,2.440143287E-2
4.743660750E0,-4.374142145E-3,-9.575729258E-5,-1.059047699E-2,1.145864267E-2
4.753610750E0,-3.656953736E-3,-5.244735454E-3,-1.657802582E-2,1.776827230E-2
4.763559750E0,2.361777197E-3,-3.465882260E-3,-2.316432953E-2,2.354095355E-2
4.773509750E0,-9.488651427E-3,-5.708424223E-3,-1.852397919E-2,2.158143688E-2
4.783458750E0,-2.796152229E-3,1.382089918E-4,-1.358425140E-2,1.386973162E-2
4.793408750E0,-7.958156434E-3,4.411221715E-3,-1.193826020E-2,1.501043595E-2
4.803357125E0,1.002034605E-3,-4.943174443E-3,-1.867483735E-2,1.934395505E-2
4.813307125E0,-7.197419973E-3,-1.151769464E-2,-1.029285371E-2,1.704121421E-2
4.823257125E0,-1.506113474E-2,-1.315515029E-2,-9.844372272E-3,2.228917729E-2
4.833206125E0,-6.650385540E-4,-2.809415816E-3,-2.152009249E-2,2.171288728E-2
4.843156125E0,-2.910337388E-3,-8.876214973E-3,-2.659313679E-3,9.712322338E-3
4.853105125E0,-1.361214445E-2,-7.115627476E-3,-1.538285494E-2,2.173832691E-2
4.863055125E0,-5.145915225E-4,-4.118758149E-3,-1.074367404E-2,1.151761716E-2
4.873004125E0,-2.111192029E-3,-8.514866182E-3,-8.200135231E-3,1.200842603E-2
4.882954125E0,-6.590008470E-3,-1.355330684E-2,-1.957647800E-2,2.470544128E-2
4.892903125E0,-3.868266628E-3,-1.032218801E-2,-8.051615953E-3,1.365062531E-2
4.902853125E0,2.355331555E-5,-5.382229532E-3,-1.254169285E-2,1.364782067E-2
4.912802125E0,-4.257051651E-3,-1.069701052E-2,-1.104480565E-2,1.595419238E-2
4.922752125E0,-1.283326792E-4,-2.862883578E-3,-8.051031232E-3,8.545857216E-3
4.932701125E0,3.762135096E-4,4.904110017E-3,-3.080313206E-2,3.119334506E-2
4.942651125E0,-1.065404719E-2,-1.256331156E-2,-2.526406467E-2,3.015988200E-2
4.952600125E0,-8.064105241E-3,-9.566289203E-3,-1.358892918E-2,1.847167233E-2
4.962550125E0,1.084192554E-3,-5.905384028E-3,-1.538519382E-2,1.651524214E-2
4.972499125E0,-4.731265409E-4,-5.878847719E-3,-1.598394871E-2,1.703735060E-2
4.982449125E0,-2.592966054E-3,-7.700058965E-3,-1.209321141E-2,1.456915040E-2
4.992398125E0,-6.575691928E-3,-9.912914888E-3,-7.153483629E-3,1.388084774E-2
5.002348125E0,-9.189150645E-3,-6.204768321E-3,-1.897889256E-2,2.198040042E-2
5.012297125E0,-5.303653004E-3,-5.003971781E-3,-6.555898190E-3,9.805522416E-3
5.022247125E0,-6.642930340E-3,-1.162639575E-2,-1.688383520E-2,2.154914134E-2
5.032196125E0,-4.385959916E-4,-5.856415881E-3,-1.823161840E-2,1.915416099E-2
5.042146125E0,-5.537029998E-3,8.658630028E-4,-1.179500341E-2,1.305873369E-2
5.052095125E0,-6.008575964E-3,-6.659062717E-3,-1.299251318E-2,1.578770091E-2
5.062045125E0,-5.356917484E-3,-1.037556441E-3,-1.164531469E-2,1.286026604E-2
5.071994125E0,-5.660232659E-3,-2.744287883E-3,-7.753992677E-3,9.984675867E-3
5.081944125E0,2.029536576E-3,1.001361034E-2,-2.212410986E-2,2.436939983E-2
5.091894125E0,-6.868335935E-3,3.148737049E-3,-1.718379736E-2,1.877156028E-2
5.101843125E0,-5.921530109E-3,1.535245855E-3,-2.214925289E-3,6.505950561E-3
5.111793125E0,1.805565376E-3,3.301461297E-4,-1.044722021E-2,1.060723681E-2
5.121742125E0,-9.597784225E-3,-1.252364414E-2,-1.508698583E-2,2.183062679E-2
5.131692125E0,-2.865048875E-3,-6.525159194E-3,-1.643593848E-2,1.791441546E-2
5.141641125E0,-7.144680829E-3,-4.448936256E-3,-2.017815650E-2,2.186315388E-2
5.151591125E0,-6.992045660E-3,-5.997786024E-3,-7.455199957E-3,1.185082892E-2
5.161540125E0,8.448815485E-4,-4.389774310E-4,-1.374212623E-2,1.377507021E-2
5.171490125E0,-1.089130253E-2,-1.612040582E-2,-1.494022071E-2,2.452953627E-2
5.181439125E0,-7.770437971E-3,-7.671037589E-3,-1.524018288E-2,1.874800518E-2
5.191389125E0,-8.769060178E-3,-1.014433215E-2,-2.272403419E-2,2.638532966E-2
5.201338125E0,-6.871136203E-3,-5.235845859E-3,-8.802398443E-3,1.233324016E-2
5.211288125E0,-1.175810657E-2,-1.438034068E-2,-2.392037451E-2,3.028583142E-2
5.221237125E0,-5.138185937E-3,-6.157504090E-3,-1.538811743E-2,1.735252055E-2
5.231187125E0,1.285971743E-3,-4.979223898E-4,-7.005549073E-3,7.139983743E-3
5.241136125E0,-1.339533152E-3,-5.033714923E-3,-1.568807960E-2,1.653022917E-2
5.251086125E0,-1.234092322E-2,-5.310550891E-4,-1.179675758E-2,1.708051214E-2
5.261035125E0,-6.847582888E-3,8.602983265E-3,-1.179734230E-2,1.612693392E-2
5.270985125E0,-8.216370391E-3,2.165662497E-3,-7.456954122E-3,1.130508740E-2
5.280934125E0,-4.480227996E-3,2.076953840E-3,-6.558821797E-3,8.210013613E-3
5.290884125E0,-4.456012300E-3,1.383375849E-3,-2.217848897E-3,5.166103763E-3
5.300833125E0,-7.319558258E-3,-1.042126633E-2,-1.823454201E-2,2.224134096E-2
5.310783125E0,-1.063610354E-2,-1.035081195E-2,3.321803212E-3,1.520856283E-2
5.320732125E0,-4.851859664E-3,-8.981062858E-3,-1.299368262E-2,1.652379558E-2
5.330682125E0,-8.698441344E-3,4.983490538E-3,-1.748434424E-2,2.015441275E-2
5.340632125E0,-7.612316469E-3,-5.970384052E-3,-1.119683325E-2,1.479736202E-2
5.350581125E0,-4.769021063E-3,-5.617835778E-3,-6.406209469E-3,9.764382238E-3
5.360531125E0,2.811752418E-3,-4.395329165E-3,-1.314278662E-2,1.414064038E-2
5.370480125E0,-4.259591536E-3,-6.138477798E-3,-1.389064550E-2,1.577260480E-2
5.380430125E0,-6.384268706E-3,9.608711209E-4,-1.733290136E-2,1.849625988E-2
5.390379125E0,-2.872695937E-3,-4.800139214E-3,-1.448881567E-2,1.553124264E-2
5.400329125E0,-6.995745851E-3,-1.382900763E-3,-1.583601415E-2,1.736756226E-2
5.410278125E0,-5.471883793E-3,-4.947443367E-3,-1.329130590E-2,1.520123418E-2
5.420228125E0,-6.909645600E-3,-4.504955322E-3,-3.261576891E-3,8.869932840E-3
5.430177125E0,-3.102948326E-3,5.974534205E-3,-6.554144025E-3,9.395751762E-3
5.440127125E0,-1.204051338E-3,5.004490265E-3,-1.523725927E-2,1.608318166E-2
5.450076125E0,-4.185345601E-3,1.145919051E-2,-1.673414648E-2,2.070897929E-2
5.460026125E0,-1.683815382E-2,-1.640555123E-4,-7.003210187E-3,1.823719527E-2
5.469975125E0,-7.942140545E-3,-3.107116751E-3,-8.649786115E-3,1.214703959E-2
5.479925125E0,-7.172729191E-3,-5.831713679E-3,-8.350408673E-3,1.245737747E-2
5.489874125E0,-6.246183054E-3,-1.372987220E-2,-1.613422215E-2,2.208703959E-2
5.499824125E0,-8.326343726E-5,-3.471000858E-3,-1.343924046E-2,1.388048860E-2
5.509773125E0,-1.105528038E-2,1.644607061E-3,-4.308228493E-3,1.197851366E-2
5.519723125E0,-4.672532869E-3,-1.076751515E-2,-4.757294655E-3,1.266506211E-2
5.529672125E0,-2.616336644E-3,1.320219068E-3,-7.751653790E-3,8.287118456E-3
5.539622125E0,4.121368839E-3,-7.973585317E-3,-1.448647678E-2,1.704176497E-2
5.549571125E0,-9.101922065E-4,-8.406372922E-3,-9.097682834E-3,1.242028134E-2
5.559521125E0,-5.543726888E-3,2.533370135E-3,-2.466530979E-2,2.540725052E-2
5.569470125E0,-3.744100090E-3,2.974165685E-3,-1.029577732E-2,1.135195920E-2
5.579420125E0,-7.863888354E-3,-2.232763865E-3,-4.608190656E-3,9.384103348E-3
5.589369125E0,-4.585240334E-3,-9.289215691E-4,-4.308813214E-3,6.360282660E-3
5.599319125E0,-3.214461124E-3,-6.058012345E-4,-2.182180882E-2,2.206560888E-2
5.609269125E0,-6.968492344E-3,-8.876690059E-3,-1.987585545E-2,2.285618388E-2
5.619218125E0,-6.840557093E-3,4.784468219E-3,-1.209204197E-2,1.469359849E-2
5.629168125E0,-3.808611324E-3,6.449615909E-4,-1.957589328E-2,1.995337299E-2
5.639117125E0,-7.130578989E-3,-8.539045332E-3,-1.149211764E-2,1.599466223E-2
5.649067125E0,-1.946113254E-3,1.531678140E-3,-1.448589206E-2,1.469606966E-2
5.659016125E0,5.596411214E-3,3.839455387E-3,-9.545579553E-3,1.171235780E-2
5.668966125E0,-1.236786153E-2,-8.950200523E-3,-1.643126070E-2,2.242891920E-2
5.678915125E0,-6.849026419E-3,-8.727524390E-3,-1.702826142E-2,2.032339863E-2
5.688865125E0,-5.147842979E-3,-1.420053423E-2,-6.387381434E-2,6.563550578E-2
5.698814125E0,-2.082536561E-2,-8.238146701E-3,-3.093703330E-2,3.819244615E-2
5.708764125E0,-2.847074626E-2,-2.042103750E-2,1.138119596E-1,1.190830144E-1
5.718713125E0,-6.893976890E-3,7.337942726E-3,-4.067147791E-2,4.189918181E-2
5.728663125E0,-2.832330049E-2,-1.072523932E-2,9.478862822E-2,9.950941739E-2
5.738612125E0,-3.577202283E-2,-1.587894551E-2,-1.664205283E-1,1.709607287E-1
5.748562125E0,2.284550553E-2,-1.110543625E-2,-1.703410864E-2,3.058445184E-2
5.758511125E0,3.541986970E-2,1.968157714E-2,1.205321646E-1,1.271610567E-1
5.768461125E0,6.533383212E-2,1.375203223E-2,-1.949935323E-1,2.061070247E-1
5.778410125E0,9.445133524E-2,-1.997249439E-2,1.515341020E-1,1.796734241E-1
5.788360125E0,3.053566945E-1,-8.027736656E-1,3.472012335E-1,9.264107974E-1
5.798309125E0,1.445364466E-1,-1.080813886E0,7.475489795E-2,1.092994847E0
5.808259750E0,2.298728315E-1,1.347028917E-1,8.325417674E-1,8.741351052E-1
5.818208750E0,-1.895695637E-1,9.132955431E-1,5.930561864E-1,1.105332985E0
5.828158750E0,-2.585566950E-1,2.359547836E0,-5.981742543E-1,2.447882757E0
5.838107750E0,8.950050140E-1,1.374926860E0,1.187879401E-1,1.644861216E0
5.848057750E0,5.071047476E-1,2.790671378E-1,4.395878255E-2,5.804877837E-1
5.858006750E0,-1.624339378E-2,-1.147007912E-1,1.490466964E-1,1.887724478E-1
5.867956750E0,-5.466120083E-1,-3.171049567E-1,4.880016017E-1,7.984270815E-1
5.877906750E0,-8.066330472E-1,-4.943952397E-2,8.831441563E-1,1.197098467E0
5.887855750E0,-4.142080591E-1,1.192305378E-1,1.483827451E0,1.545162820E0
5.897805750E0,1.433985054E-1,-1.571832432E-1,1.167304219E0,1.186536490E0
5.907754750E0,4.084791765E-1,-6.149060619E-1,1.318835397E0,1.511387279E0
5.917704750E0,3.742878753E-1,-9.942763370E-1,1.313299838E0,1.689210855E0
5.927653750E0,-1.746437600E-1,-1.655709717E0,2.564762447E0,3.057757597E0
5.937603750E0,-4.651582843E-1,1.046987817E-2,3.312968069E0,3.345480425E0
5.947552750E0,-1.454927588E0,2.465727279E0,2.885118529E0,4.064546005E0
5.957502750E0,-2.931251307E0,3.602360513E0,5.426076962E0,7.142236812E0
5.967451750E0,-4.286105552E0,3.349767521E0,1.067247600E1,1.197887254E1
5.977401750E0,-2.555681429E0,5.455209544E0,6.646653408E0,8.970441476E0
5.987350750E0,-2.506039738E0,5.956054263E-1,-2.235394637E0,3.410567427E0
5.997300750E0,2.731029779E-2,-6.636252381E0,-1.268319781E1,1.431447164E1
6.007249750E0,5.316677896E0,-8.055678014E0,-1.112034466E1,1.472491349E1
6.017199750E0,4.480960213E0,-3.577699004E0,-2.770734127E0,6.368351608E0
6.027148750E0,1.448222293E0,1.148062348E0,-1.075064977E0,2.138027051E0
6.037098750E0,-1.435952496E0,2.416703930E0,7.289554185E-1,2.904099423E0
6.047047750E0,-2.001479991E0,1.865645955E0,2.237392046E0,3.534470279E0
6.056997750E0,-1.242128114E0,1.263114648E0,2.115008068E0,2.758912828E0
6.066946750E0,8.353566170E-1,9.057917382E-1,1.882577738E0,2.249972953E0
6.076896750E0,8.145878917E-1,-1.302734358E0,1.568672304E0,2.195769350E0
6.086845750E0,-1.309372848E-1,-1.069613764E0,1.438499250E0,1.797358693E0
6.096795750E0,-2.081287175E0,1.150285240E0,3.092847297E0,3.901360896E0
6.106744750E0,-4.745726523E0,2.959860563E0,2.545686491E0,6.145178150E0
6.116694750E0,-3.627963424E0,1.958490092E0,4.023353316E0,5.760657423E0
6.126643750E0,-2.073982834E0,-2.605243891E0,2.377240487E0,4.091451192E0
6.136593750E0,3.751228577E-1,-6.872922528E0,-2.731070709E-1,6.888567972E0
6.146543750E0,3.801260862E0,-5.549643831E0,7.048631358E-1,6.763502261E0
6.156492750E0,5.560424343E0,-1.626993310E0,3.685321686E0,6.866368912E0
6.166442750E0,5.651999341E0,-1.891934744E0,4.872895278E0,7.698676641E0
6.176391750E0,2.159214773E0,-1.279952875E0,4.572586960E0,5.216228455E0
6.186341750E0,-1.998400555E0,-2.664774978E-1,4.211942393E0,4.669590320E0
6.196290750E0,-4.591255950E0,-1.245422435E0,2.531475418E0,5.388791704E0
6.206240750E0,-4.353704628E0,-1.921658773E0,-3.666028798E-1,4.773040341E0
6.216189750E0,-1.632689960E0,-2.079732985E0,-2.260120173E0,3.478377351E0
6.226139750E0,1.730529081E0,-2.717889039E0,-3.101319913E0,4.472117723E0
6.236088750E0,3.535958070E0,-2.460748667E0,-2.950747093E0,5.221608170E0
6.246038750E0,3.181513891E0,-2.255194479E0,-3.004687073E0,4.923015049E0
6.255987750E0,2.292393880E0,-1.542471516E0,-2.831103705E0,3.955936838E0
6.265937750E0,-2.529505491E-2,-8.907782811E-1,-4.440983092E0,4.529509533E0
6.275886750E0,-2.055001602E0,2.346179493E0,-3.797003505E0,4.913738436E0
6.285836750E0,-2.893957180E0,2.034158033E0,-2.429463724E0,4.291279652E0
6.295785750E0,-2.336410550E0,-1.365757549E-1,4.776245481E-1,2.388638190E0
6.305735750E0,-1.385921087E0,-5.950033092E-1,1.817556700E0,2.361846429E0
6.315684750E0,2.360380626E-1,-9.311392719E-1,1.608239828E0,1.873277783E0
6.325634750E0,1.687969537E0,-2.011870201E0,1.957790765E0,3.275638494E0
6.335583750E0,2.115507420E0,-2.971241584E0,2.362863646E0,4.345891485E0
6.345533750E0,2.595597154E0,-3.028190541E0,2.717312503E0,4.826059446E0
6.355482750E0,3.384398825E0,-3.383647458E0,1.687631568E0,5.074576419E0
6.365432750E0,4.139686010E0,-3.828870245E0,4.753102201E-1,5.658901609E0
6.375381750E0,4.714816387E0,-4.447205699E0,-1.931821526E0,6.763066354E0
6.385331750E0,5.355958321E0,-4.536300309E0,-3.435131607E0,7.814373883E0
6.395280750E0,3.725906625E0,-1.981962862E0,-8.441044024E0,9.437254960E0
6.405230750E0,-2.213316720E0,5.476995100E0,-1.029995223E1,1.187372150E1
6.415180750E0,-4.584103636E0,8.953751281E0,1.573005091E0,1.018125794E1
6.425129750E0,-4.831086516E-1,6.172948834E0,7.209804010E-1,6.233658959E0
6.435079750E0,1.852935278E0,2.350697637E0,-1.478812294E0,3.338567705E0
6.445028750E0,2.386827582E0,3.737832606E-1,-1.024041004E0,2.623989293E0
6.454978750E0,2.180476418E0,6.727455497E-2,-2.084908941E0,3.017589861E0
6.464927750E0,1.732577360E0,3.766463497E-1,-1.743778287E0,2.486855343E0
6.474877750E0,1.086488682E0,8.961059716E-1,-1.761240411E0,2.255090099E0
6.484826750E0,5.233211231E-1,1.042010959E0,-1.674833182E0,2.040764079E0
6.494776750E0,2.588416189E-1,5.723742923E-1,-1.442831452E0,1.573649870E0
6.504725750E0,5.199344158E-3,2.731015161E-1,-9.633662009E-1,1.001342054E0
6.514675750E0,-2.860849661E-1,9.978448927E-2,-4.936909425E-1,5.792514988E-1
6.524624750E0,-3.520550072E-1,-7.850091666E-2,-7.297301745E-1,8.140093671E-1
6.534574750E0,-6.113889617E-1,3.471345752E-2,-7.982922864E-1,1.006117320E0
6.544523750E0,-1.504830065E0,9.070984447E-1,1.087179238E0,2.066228402E0
6.554473750E0,-1.617590110E0,1.521154029E0,3.409372283E0,4.068700863E0
6.564422750E0,-1.035484005E0,1.034743455E0,4.388340025E0,4.626061966E0
6.574372750E0,-1.579859197E0,1.357789256E0,4.525714509E0,4.982131930E0
6.584321750E0,-2.529991980E0,8.322640246E-1,3.284863427E0,4.228930191E0
6.594271750E0,-2.550791987E0,8.561200798E-1,3.266411369E0,4.231893735E0
6.604221750E0,-1.970256444E0,6.885716236E-1,2.848307968E0,3.531132908E0
6.614170750E0,-1.958332509E0,3.272750920E-1,2.897447968E0,3.512460666E0
6.624120750E0,-2.718754719E0,1.980063102E-1,4.543382456E0,5.298410881E0
6.634069750E0,-3.731525507E0,-8.492308903E-1,6.346736854E0,7.411244457E0
6.644019750E0,-4.588091437E0,-1.680694431E0,6.551691703E0,8.173125532E0
6.653968750E0,-4.717692048E0,-2.850456820E0,3.491153780E0,6.524559530E0
6.663918750E0,-4.500863258E0,-4.180344332E0,9.649046034E-1,6.218045488E0
6.673867750E0,-6.202494230E0,-4.943196352E0,1.702485834E0,8.112002395E0
6.683817750E0,-6.557940622E0,-3.863150716E0,5.813442135E-1,7.633379314E0
6.693766750E0,-4.993985267E0,-2.923502284E0,-1.272465223E-1,5.788172952E0
6.703716750E0,-3.059096291E0,-1.908970900E0,-5.831387240E-1,3.652710061E0
6.713665750E0,-1.902699761E0,-8.210973045E-1,3.938479811E-1,2.109403564E0
6.723615750E0,-1.194926977E0,-1.809952980E-1,2.196469722E0,2.507007982E0
6.733564750E0,-1.230380473E0,6.623784363E-2,2.794516507E0,3.054103153E0
6.743514750E0,-2.398144283E0,-2.547725415E-1,3.372730706E0,4.146241366E0
6.753463750E0,-4.232938282E0,-5.574027890E-1,5.804185992E0,7.205347973E0
6.763413750E0,-5.257270185E0,7.742049739E-1,8.433873584E0,9.968375332E0
6.773363750E0,-2.515932057E0,-1.109499522E0,6.728146053E0,7.268345934E0
6.783312750E0,-9.318054159E-1,-1.946365013E0,5.838810865E0,6.224814086E0
6.793262750E0,5.895705881E-1,-8.867308384E-1,2.931616173E0,3.119015621E0
6.803211750E0,2.363066690E0,-7.145075333E-1,7.380981249E-1,2.576702164E0
6.813161042E0,2.838105746E0,-6.545490146E-1,-2.537469399E-1,2.923639196E0
6.823110042E0,2.318948425E0,1.833470482E-1,-3.620923376E-1,2.354198122E0
6.833060042E0,2.097094831E0,-2.122714698E-1,3.576613176E-1,2.137940019E0
6.843009042E0,1.863142177E0,-4.282828188E-1,9.906265050E-1,2.153152530E0
6.852959042E0,1.768937540E0,7.251424491E-2,1.336784595E0,2.218420923E0
6.862908042E0,2.051072566E0,-4.878992754E-1,9.707775468E-1,2.321067301E0
6.872858042E0,1.812802913E0,-5.715378481E-1,1.669789374E-1,1.908085920E0
6.882807042E0,1.228423410E0,-5.864429855E-1,-1.205010574E0,1.817963127E0
6.892757042E0,6.482882546E-1,-2.361193389E-1,-2.926693987E0,3.006919968E0
6.902706042E0,1.914433953E-1,-1.450735134E-1,-4.097635174E0,4.104669404E0
6.912656042E0,2.046923089E-1,-6.590963942E-1,-4.793422261E0,4.842850811E0
6.922605042E0,9.652536821E-1,-6.351988238E-1,-5.515565089E0,5.635303937E0
6.932555042E0,1.770237376E0,-2.971660244E-1,-6.011722387E0,6.273982314E0
6.942505042E0,2.026681344E0,1.354712158E-1,-6.405458686E0,6.719798412E0
6.952454042E0,1.761367442E0,2.066376776E-1,-7.355963352E0,7.566723943E0
6.962404042E0,1.314676273E0,3.249356210E-2,-8.318046089E0,8.421360951E0
6.972353042E0,6.386426876E-1,-1.869237900E-2,-8.149931622E0,8.174937268E0
6.982303042E0,4.676617697E-2,4.278641582E-2,-6.802957084E0,6.803252372E0
6.992252042E0,3.030372137E-1,-4.426979595E-1,-5.101875751E0,5.130004797E0
7.002202042E0,6.705059199E-1,-8.323564106E-1,-3.209719105E0,3.383000460E0
7.012151042E0,1.057645390E0,-1.201534989E0,-1.790483506E0,2.401693421E0
7.022101042E0,1.453724231E0,-1.647213859E0,-9.229759741E-1,2.382962921E0
7.032050042E0,1.411103437E0,-1.936164545E0,-1.101517196E0,2.636908453E0
7.042000042E0,9.597879973E-1,-1.922775591E0,-1.113666540E0,2.420436352E0
7.051949042E0,5.554088885E-1,-2.070317799E0,-6.419377398E-1,2.237583268E0
7.061899042E0,3.778804046E-1,-2.085550965E0,2.822626412E-1,2.138220902E0
7.071848042E0,1.624555314E-1,-1.650178982E0,1.198166408E0,2.045748082E0
7.081798042E0,5.302839875E-3,-1.298813946E0,2.060656444E0,2.435826506E0
7.091747042E0,-2.731965333E-2,-1.173499929E0,2.098734682E0,2.404690357E0
7.101697042E0,3.141860998E-1,-1.311974275E0,2.383964785E0,2.739211109E0
7.111646042E0,9.676223892E-1,-2.692275018E0,3.289772165E0,4.359729207E0
7.121596042E0,1.218136696E0,-3.049625849E0,3.753445841E0,4.987226735E0
7.131546042E0,7.179509586E-1,-1.874474666E0,4.184320731E0,4.640867250E0
7.141495042E0,-6.942574561E-2,-2.324438376E0,5.858917100E0,6.303550054E0
7.151445042E0,-7.967690867E-1,-2.586781892E0,6.463097615E0,7.006990246E0
7.161394042E0,-1.615172287E0,-2.867697920E0,6.510757100E0,7.295370511E0
7.171344042E0,-2.115963503E0,-2.965916525E0,6.945527405E0,7.843106101E0
7.181293042E0,-2.106283438E0,-3.053446419E0,6.671228671E0,7.633168211E0
7.191243042E0,-1.683458118E0,-3.530482737E0,5.995736684E0,7.158714827E0
7.201192042E0,-1.408481107E0,-3.729023191E0,5.796021525E0,7.034436616E0
7.211142042E0,-1.360667255E0,-4.289540207E0,5.880821940E0,7.405108862E0
7.221091042E0,-1.839897449E0,-5.156817359E0,5.646680714E0,7.865302981E0
7.231041042E0,-2.810168334E0,-5.038328796E0,5.678893610E0,8.095161256E0
7.240990042E0,-3.360295140E0,-5.391517578E0,6.138700522E0,8.834233941E0
7.250940042E0,-3.398953130E0,-6.327355088E0,6.161516358E0,9.463222951E0
7.260890042E0,-3.056196365E0,-7.175308946E0,5.884103397E0,9.769752683E0
7.270839042E0,-2.331454742E0,-7.977583771E0,5.756650468E0,1.011022001E1
7.280789042E0,-1.870435994E0,-8.262923802E0,4.875823563E0,9.774870638E0
7.290738042E0,-1.469497387E0,-8.771553211E0,3.838083118E0,9.686611912E0
7.300688042E0,-1.213557741E0,-8.542813643E0,3.134213132E0,9.180178609E0
7.310637042E0,-7.019389433E-1,-7.844422206E0,1.603587198E0,8.037360881E0
7.320587042E0,-4.139173794E-1,-7.947255433E0,-6.796978891E-2,7.958317436E0
7.330536042E0,-3.334731406E-1,-6.808899025E0,-1.386655498E0,6.956660387E0
7.340486042E0,-4.370518881E-1,-5.555204533E0,-3.485784867E0,6.572823434E0
7.350435042E0,-3.282042146E-1,-5.170902132E0,-5.796655363E0,7.774777184E0
7.360385042E0,-3.266634732E-1,-4.676663890E0,-6.675358559E0,8.157101572E0
7.370334042E0,-5.996910220E-1,-4.345036131E0,-7.274701087E0,8.494718607E0
7.380284042E0,-1.451775938E-1,-3.425122343E0,-7.343540357E0,8.104327522E0
7.390233042E0,8.347110844E-1,-2.564446698E0,-6.838481843E0,7.351051855E0
7.400183042E0,1.960224668E0,-2.257579850E0,-6.364289026E0,7.031594580E0
7.410133042E0,2.818892965E0,-2.822768207E0,-5.957466073E0,7.169768470E0
7.420082042E0,2.614261467E0,-2.208150413E0,-6.744101350E0,7.562618216E0
7.430032042E0,2.569433203E0,-2.317528429E0,-7.285705547E0,8.065632667E0
7.439981042E0,2.238860282E0,-2.476192918E0,-6.439388909E0,7.253258320E0
7.449931042E0,1.868567224E0,-2.961344002E0,-5.160004091E0,6.235923668E0
7.459880042E0,1.238220420E0,-3.012548069E0,-4.101159291E0,5.237188483E0
7.469830042E0,4.969355625E-1,-2.641002538E0,-3.252757536E0,4.219273746E0
7.479779042E0,-6.079116225E-2,-2.262246221E0,-2.481775255E0,3.358669669E0
7.489729042E0,-1.198854625E-2,-1.887849295E0,-1.949740611E0,2.713965205E0
7.499678042E0,2.733292651E-1,-1.336623212E0,-1.909633974E0,2.346906988E0
7.509628042E0,7.348394716E-1,-1.193678962E0,-2.340938634E0,2.728525646E0
7.519577042E0,1.083089111E0,-9.259823200E-1,-2.636213084E0,2.996688957E0
7.529527042E0,1.178192319E0,-9.944102383E-1,-2.834475794E0,3.226645610E0
7.539477042E0,1.037640458E0,-8.138441259E-1,-2.853128412E0,3.143148377E0
7.549426042E0,8.433164316E-1,-9.158204439E-1,-2.732264126E0,3.002528425E0
7.559376042E0,4.847639984E-1,-8.370756984E-1,-2.155794151E0,2.362866962E0
7.569325042E0,4.435107225E-1,-8.164250869E-1,-1.292070352E0,1.591445091E0
7.579275042E0,5.086884660E-1,-1.032057244E0,-4.259351617E-1,1.226917630E0
7.589224042E0,4.055459207E-1,-7.523729324E-1,-1.307729781E-2,8.548119904E-1
7.599174042E0,4.014148629E-1,-4.750488496E-1,-1.194363964E-1,6.333011562E-1
7.609123042E0,3.368534160E-1,-1.645350936E-1,-6.911461526E-1,7.862728694E-1
7.619073042E0,3.114665598E-1,9.241728991E-2,-1.114735411E0,1.161114728E0
7.629022042E0,3.434607697E-1,2.763063750E-1,-1.146683428E0,1.228492327E0
7.638972042E0,3.631951225E-1,2.765923038E-1,-8.388590991E-1,9.550385268E-1
7.648922042E0,4.257989216E-1,3.818202585E-2,-2.665377241E-1,5.037905786E-1
7.658871042E0,4.016078210E-1,-6.362998545E-2,4.332377493E-2,4.089187773E-1
7.668821042E0,3.099269879E-1,-2.792314446E-1,1.192405146E-1,4.338700702E-1
7.678770042E0,1.737581992E-1,-3.626934314E-1,8.177798867E-2,4.103974615E-1
7.688720042E0,1.139867914E-1,-4.465752482E-1,3.045990050E-1,5.524518031E-1
7.698669042E0,1.705931014E-1,-3.077480230E-1,6.813853955E-1,7.668747676E-1
7.708619042E0,1.994976425E-1,-1.588717729E-2,6.968559587E-1,7.250240954E-1
7.718568042E0,2.747805440E-1,2.221173039E-1,3.056158358E-1,4.671632297E-1
7.728518042E0,3.772834039E-1,2.202254373E-1,-1.166344106E-2,4.370103499E-1
7.738467042E0,3.235895920E-1,1.548532739E-1,-2.195073992E-1,4.205630259E-1
7.748417042E0,1.900193059E-1,-5.485565364E-2,-2.966865528E-1,3.565661088E-1
7.758367042E0,5.751555204E-2,-2.553414756E-1,-1.683828539E-1,3.112235424E-1
7.768316042E0,-3.642815351E-4,-4.343858501E-1,1.718777347E-1,4.671543162E-1
7.778266042E0,1.213607150E-1,-4.325059703E-1,4.867719322E-1,6.623720643E-1
7.788215042E0,2.949645478E-1,-3.815960178E-1,4.489468789E-1,6.589179807E-1
7.798165042E0,3.925241715E-1,-2.229818147E-1,1.939854723E-1,4.913516850E-1
7.808114500E0,4.545344782E-1,-1.284019321E-2,-8.804561913E-2,4.631614119E-1
7.818064500E0,4.876548618E-1,1.287875560E-1,-2.323560709E-1,5.553222871E-1
7.828013500E0,3.548873985E-1,3.789831895E-1,-2.344920588E-1,5.697015439E-1
7.837963500E0,3.375515735E-1,-1.543255627E-1,-2.693204141E-1,4.585748898E-1
7.847913500E0,5.126897156E-2,-3.512480915E-2,-1.495232445E-1,1.619242425E-1
7.857862500E0,-8.106638253E-2,-8.470101178E-2,-3.074524462E-1,3.290486688E-1
7.867812500E0,-1.484865332E-1,-2.472708562E-1,-1.037021238E-1,3.065049059E-1
7.877761500E0,-1.239790982E-1,-1.967254776E-1,-6.841242313E-5,2.325332987E-1
7.887711500E0,-1.414599341E-1,-3.256992674E-1,-7.690842748E-3,3.551761180E-1
7.897660500E0,-2.209715420E-1,-2.656115252E-1,-1.176594275E-1,3.649954049E-1
7.907610500E0,-2.791758960E-1,-1.516451991E-1,-4.164872307E-1,5.238292285E-1
7.917559500E0,-2.675872993E-1,-1.174997985E-2,-7.832550019E-1,8.277858556E-1
7.927509500E0,-4.727181494E-2,6.966226548E-2,-9.016880161E-1,9.056095925E-1
7.937458500E0,2.014248848E-1,2.179918009E-1,-1.102450411E0,1.141704567E0
7.947408500E0,4.079888874E-1,1.740841815E-1,-1.273040589E0,1.348107034E0
7.957358500E0,7.131983417E-1,2.871626079E-2,-1.389945141E0,1.562505678E0
7.967307500E0,1.031327804E0,-1.752392989E-1,-1.736579195E0,2.027326602E0
7.977257500E0,1.306465028E0,-4.056175491E-1,-2.027520858E0,2.445857170E0
7.987206500E0,1.647257128E0,-5.590721691E-1,-2.346469515E0,2.920947949E0
7.997156500E0,1.996923548E0,-4.115916494E-1,-3.098036701E0,3.708765663E0
8.007105500E0,2.091403443E0,-2.240562406E-1,-3.897664492E0,4.428990636E0
8.017055500E0,1.951160315E0,-2.251406068E-1,-4.445056263E0,4.859654313E0
8.027004500E0,1.725363650E0,-3.313468006E-1,-4.692272447E0,5.010398302E0
8.036954500E0,1.588473315E0,-6.683981448E-1,-4.719906389E0,5.024691022E0
8.046904500E0,1.596552998E0,-9.999680167E-1,-4.950970809E0,5.297266226E0
8.056853500E0,1.659905825E0,-1.336207475E0,-5.588813159E0,5.981268285E0
8.066803500E0,1.919129852E0,-1.545814369E0,-5.876438867E0,6.372215879E0
8.076752500E0,1.873270140E0,-2.377099569E0,-6.109577295E0,6.818113970E0
8.086702500E0,1.860913219E0,-2.667334304E0,-6.259420967E0,7.053936571E0
8.096651500E0,1.746125944E0,-2.741468813E0,-6.120752494E0,6.930239401E0
8.106601500E0,1.234215077E0,-2.544992427E0,-5.509330788E0,6.192979819E0
8.116551500E0,1.073034239E0,-3.043818979E0,-5.473620672E0,6.354270982E0
8.126500500E0,6.098879814E-1,-3.267576134E0,-5.322354373E0,6.275067586E0
8.136450500E0,1.081206307E0,-4.532268069E0,-6.324381194E0,7.855460420E0
8.146399500E0,1.470765941E0,-5.584324837E0,-6.713352013E0,8.855333510E0
8.156349500E0,1.082139523E0,-5.861920815E0,-7.093025758E0,9.265212140E0
8.166298500E0,8.508055454E-1,-7.055566741E0,-7.354839517E0,1.022734357E1
8.176248500E0,8.846606317E-1,-8.425622578E0,-6.903108194E0,1.092824977E1
8.186197500E0,1.192661839E0,-9.917099941E0,-6.144284028E0,1.172704309E1
8.196147500E0,8.059223181E-1,-1.080917806E1,-5.031312722E0,1.194997694E1
8.206097500E0,-7.154541975E-1,-1.099404480E1,-4.032860304E0,1.173221454E1
8.216046500E0,-1.455707898E0,-1.163052358E1,-3.251669953E0,1.216394351E1
8.225996500E0,-2.635788284E0,-1.067049731E1,1.265853776E0,1.106387267E1
8.235945500E0,-3.477782660E0,-7.920610256E0,3.081853947E0,9.183074802E0
8.245895500E0,-2.971159430E0,-7.569228848E0,4.348674268E0,9.221278740E0
8.255844500E0,-2.738204020E0,-7.303412670E0,6.331477375E0,1.004615367E1
8.265794500E0,-2.274422463E0,-5.806436586E0,6.214288064E0,8.803696922E0
8.275744500E0,-1.581759250E0,-5.473394970E0,5.756071009E0,8.098911549E0
8.285693500E0,-1.082014685E0,-5.488195442E0,5.593205588E0,7.910435749E0
8.295643500E0,-1.055180351E0,-4.484562390E0,5.509603268E0,7.181951934E0
8.305592500E0,-9.998712453E-1,-3.404137271E0,6.166901643E0,7.114672793E0
8.315542500E0,-6.028806782E-1,-2.471767745E0,6.564300638E0,7.040109642E0
8.325491500E0,-3.945394143E-1,-2.371102080E0,7.111189549E0,7.506450774E0
8.335441500E0,-6.556842515E-1,-2.100421312E0,7.454397719E0,7.772370094E0
8.345391500E0,-8.460412341E-1,-1.920741929E0,7.512341872E0,7.800020239E0
8.355340500E0,-8.656875864E-1,-2.188344139E0,6.795872598E0,7.191811276E0
8.365290500E0,-1.056114736E0,-2.149190306E0,5.948128654E0,6.412069229E0
8.375239500E0,-1.138930605E0,-2.008721475E0,5.179991629E0,5.671370042E0
8.385189500E0,-8.339705345E-1,-2.081242152E0,4.831104058E0,5.326034375E0
8.395138500E0,-4.303904477E-1,-2.083257687E0,4.384020687E0,4.872867319E0
8.405088500E0,2.723136038E-2,-2.340177911E0,4.135563723E0,4.751848220E0
8.415037500E0,4.379459274E-1,-2.152750676E0,4.340891039E0,4.865127657E0
8.424987500E0,6.876615044E-1,-2.045260141E0,4.707827795E0,5.178765291E0
8.434937500E0,5.563675395E-1,-2.137519264E0,5.015160373E0,5.479996990E0
8.444886500E0,8.464634031E-2,-2.141753232E0,5.658490335E0,6.050849923E0
8.454836500E0,-4.862883675E-1,-2.117566225E0,6.115762480E0,6.490232184E0
8.464785500E0,-9.110134479E-1,-2.271605274E0,6.223909072E0,6.687838228E0
8.474735500E0,-1.208196429E0,-2.530111848E0,5.927278653E0,6.556968568E0
8.484684500E0,-1.189301444E0,-3.152106489E0,5.356117950E0,6.327575581E0
8.494634500E0,-1.092909802E0,-4.195154452E0,4.790642495E0,6.460961865E0
8.504584500E0,-9.560522112E-1,-4.973683149E0,4.527829447E0,6.793585166E0
8.514533500E0,-1.048954820E0,-5.071908771E0,4.327452384E0,6.749178389E0
8.524483500E0,-1.170529836E0,-5.572023464E0,3.861758494E0,6.879735769E0
8.534432500E0,-1.145701681E0,-5.810068291E0,3.106199999E0,6.687152183E0
8.544382500E0,-1.060652760E0,-5.596888164E0,2.724628832E0,6.314565992E0
8.554331500E0,-1.263774506E0,-5.310101532E0,2.667662918E0,6.075420128E0
8.564281500E0,-1.542732886E0,-5.554533858E0,2.743975514E0,6.384533872E0
8.574231500E0,-1.707378784E0,-6.947409039E0,2.704995636E0,7.648440106E0
8.584180500E0,-1.981986543E0,-7.337219517E0,2.913685101E0,8.139571351E0
8.594130500E0,-2.353708953E0,-6.998252333E0,2.718148363E0,7.867897563E0
8.604079500E0,-2.255385098E0,-6.828837445E0,2.179401554E0,7.514624004E0
8.614029500E0,-1.474121658E0,-7.142893737E0,1.827700742E0,7.518939792E0
8.623979500E0,-7.924553034E-1,-7.458231738E0,1.475677894E0,7.644006235E0
8.633928500E0,-3.202291971E-1,-7.308113247E0,5.096368843E-1,7.332857269E0
8.643878500E0,-2.565787464E-1,-6.787002372E0,6.976248676E-1,6.827584807E0
8.653827500E0,-3.295517054E-1,-6.870855537E0,3.104456359E-1,6.885756068E0
8.663777500E0,-7.416520625E-1,-5.561545254E0,-8.256461459E-1,5.671201368E0
8.673726500E0,-4.220192814E-1,-5.148470458E0,-4.564149427E-1,5.185861831E0
8.683676500E0,-7.493616164E-1,-5.234561353E0,-8.140663201E-1,5.350222366E0
8.693626500E0,-1.470163093E0,-3.951122661E0,-2.046555299E0,4.686271267E0
8.703575500E0,-1.923269681E0,-1.771385915E0,-4.772202131E0,5.441570316E0
8.713525500E0,-1.458996080E0,-1.826439790E0,-6.060899225E0,6.496079686E0
8.723474500E0,-1.437096503E0,-2.261408607E0,-6.440823816E0,6.975917623E0
8.733424500E0,-1.464708225E0,-2.113599181E0,-8.335222285E0,8.722878093E0
8.743373500E0,-1.309306775E0,-2.380316415E0,-1.010358636E1,1.046243986E1
8.753323500E0,-1.322130888E0,-1.833941767E0,-1.226477340E1,1.247140886E1
8.763273500E0,-9.758657938E-1,-2.303830449E0,-1.103570738E1,1.131577598E1
8.773222500E0,-2.882455122E-1,-2.850478747E0,-6.708542093E0,7.294713947E0
8.783172500E0,4.646653640E-1,-3.088195545E0,-2.626635345E0,4.080695879E0
8.793121500E0,1.071665406E0,-3.333107634E0,-6.384568924E-1,3.558890339E0
8.803071500E0,1.605962337E0,-3.311717058E0,-7.341787362E-1,3.753079178E0
8.813019917E0,1.965623403E0,-2.827917557E0,-2.352197447E0,4.170566617E0
8.822969917E0,1.987600163E0,-1.810902422E0,-4.259536974E0,5.037219195E0
8.832919917E0,2.167508463E0,-1.434911545E0,-5.390253995E0,5.984304656E0
8.842868917E0,2.080838694E0,-1.325311627E0,-5.508005809E0,6.035268724E0
8.852818917E0,1.765589570E0,-1.341185502E0,-4.943812063E0,5.418243516E0
8.862767917E0,1.105227254E0,-1.267161798E0,-4.188357648E0,4.513265569E0
8.872717917E0,8.322663635E-1,-1.339631312E0,-2.910659167E0,3.310470683E0
8.882667917E0,6.534620172E-1,-1.628992619E0,-8.466411585E-1,1.948699775E0
8.892616917E0,5.458966380E-1,-1.353132095E0,8.907829589E-1,1.709521537E0
8.902566917E0,6.656949770E-1,-1.034726205E0,1.524864964E0,1.959342054E0
8.912515917E0,7.501252627E-1,-3.767247024E-1,1.136095875E0,1.412559113E0
8.922465917E0,8.112497163E-1,2.182910322E-1,2.652209312E-1,8.809762875E-1
8.932414917E0,9.013389373E-1,7.275516482E-1,-7.393868512E-1,1.374203841E0
8.942364917E0,1.034708079E0,1.033299777E0,-1.301132367E0,1.957364216E0
8.952314917E0,1.200532191E0,9.612069704E-1,-1.366066282E0,2.057020532E0
8.962263917E0,1.300961629E0,6.189296772E-1,-1.247841429E0,1.905959951E0
8.972213917E0,1.119773372E0,4.673673624E-1,-7.421917605E-1,1.422382953E0
8.982162917E0,1.095063039E0,-3.770278805E-1,-2.072802866E-1,1.176553526E0
8.992112917E0,7.299839437E-1,-2.219853030E-1,3.944297791E-1,8.589114526E-1
9.002062917E0,6.030297822E-1,-4.032261841E-1,7.863534415E-1,1.069854200E0
9.012011917E0,5.057964331E-1,-2.394072282E-1,1.469949085E0,1.572862411E0
9.021961917E0,3.744638765E-1,1.065774921E-1,1.369043099E0,1.423327427E0
9.031910917E0,2.472132611E-1,3.823136173E-1,6.816075897E-1,8.196749385E-1
9.041860917E0,1.500991952E-1,5.741861983E-1,-6.759966016E-2,5.973184015E-1
9.051809917E0,6.688162208E-2,6.148310713E-1,-4.959497219E-1,7.927524988E-1
9.061759917E0,4.012359381E-2,4.692785248E-1,-5.052538115E-1,6.907341389E-1
9.071709917E0,3.763267994E-2,2.898608056E-1,-3.179224706E-1,4.318682698E-1
9.081658917E0,1.298315763E-2,3.493418992E-2,-1.559282845E-1,1.603202730E-1
9.091608917E0,-6.200095117E-2,-2.334676266E-1,-1.251994121E-1,2.720774584E-1
9.101557917E0,-3.753035367E-2,-4.667618832E-1,1.234136724E-1,4.842583170E-1
9.111507917E0,-5.767693520E-2,-6.519413026E-1,4.519868463E-1,7.953905959E-1
9.121457917E0,-8.737494349E-2,-5.851478273E-1,7.126042646E-1,9.261950110E-1
9.131406917E0,-1.158327574E-1,-3.539249468E-1,5.600363749E-1,6.725480183E-1
9.141356917E0,-1.068438327E-1,-5.677280948E-2,-3.577911258E-2,1.261701287E-1
9.151305917E0,-1.119952297E-1,7.183362901E-2,-7.004835713E-1,7.130078789E-1
9.161255917E0,-1.429468811E-1,1.989471272E-1,-9.675253254E-1,9.980576264E-1
9.171205917E0,-1.690593767E-1,3.012812948E-1,-7.050058079E-1,7.851017008E-1
9.181154917E0,2.298365057E-2,-3.838080195E-1,-4.666844076E-1,6.046744416E-1
9.191104917E0,-3.102824986E-2,-2.269291238E-1,-2.259779280E-1,3.217539487E-1
9.201053917E0,5.550586402E-2,-4.957324979E-1,-1.447425610E-1,5.194054479E-1
9.211003917E0,1.217624187E-2,-4.125055692E-1,9.377822936E-2,4.232061693E-1
9.220953917E0,-6.201206088E-2,-3.055006456E-1,1.831400567E-1,3.615472591E-1
9.230902917E0,-1.652715504E-1,-2.159717341E-1,1.047663170E-1,2.914351669E-1
9.240852917E0,-3.250519806E-1,1.141682012E-1,-1.815279794E-1,3.894169688E-1
9.250801917E0,-4.541509008E-1,1.245981722E-1,-4.429002732E-1,6.464815521E-1
9.260751917E0,-4.127169460E-1,1.153624950E-1,-2.461940914E-1,4.942219273E-1
9.270700917E0,-3.046913910E-1,-1.038110282E-1,-8.540969431E-2,3.330291116E-1
9.280650917E0,-1.854888833E-1,1.498344626E-1,-1.628221518E-1,2.887343850E-1
9.290600917E0,6.595133007E-2,1.962647170E-2,-4.460688794E-1,4.513449030E-1
9.300549917E0,1.641360211E-1,-2.115084082E-3,-5.289268488E-1,5.538128911E-1
9.310499917E0,2.067563760E-1,-5.548130572E-2,-3.752421409E-1,4.320104612E-1
9.320448917E0,1.905087179E-1,-1.757440598E-1,3.031781316E-3,2.592079047E-1
9.330398917E0,1.171325934E-1,-2.403072609E-1,3.393566090E-1,4.320075603E-1
9.340348917E0,2.904896736E-2,-1.890993927E-1,5.021506941E-1,5.373618357E-1
9.350297917E0,8.335790634E-3,-7.908958510E-2,4.240371555E-1,4.314303619E-1
9.360247917E0,-1.422686040E-2,2.828371301E-2,3.078734457E-2,4.416143753E-2
9.370196917E0,4.043466568E-2,9.417452440E-2,-3.467334563E-1,3.615631244E-1
9.380146917E0,2.185402697E-1,2.286626771E-2,-4.542812937E-1,5.046327472E-1
9.390096917E0,3.506505060E-1,2.256586701E-2,-3.646867472E-1,5.064202003E-1
9.400045917E0,4.187512726E-1,-3.497395098E-2,-2.868895429E-1,5.088039066E-1
9.409995917E0,4.451403415E-1,-1.075086612E-1,-2.143098092E-1,5.056053107E-1
9.419944917E0,4.547315294E-1,-2.059776731E-1,-5.958429694E-2,5.027502899E-1
9.429894917E0,4.685654569E-1,-2.420069003E-1,-2.878291905E-2,5.281565900E-1
9.439844917E0,4.252954763E-1,-1.341490142E-1,-2.233127671E-1,4.987392025E-1
9.449793917E0,3.328545052E-1,-7.068655148E-2,-3.981608874E-1,5.237564342E-1
9.459743917E0,2.977220947E-1,-4.849344447E-2,-4.164615029E-1,5.142278126E-1
9.469692917E0,2.661471301E-1,-4.194412440E-2,-4.402286804E-1,5.161345711E-1
9.479642917E0,2.754231530E-1,-7.908432260E-2,-4.944680375E-1,5.714988044E-1
9.489592917E0,3.933609080E-1,-1.626008347E-1,-6.901801926E-1,8.108763985E-1
9.499541917E0,4.879934156E-1,-2.566478898E-1,-1.139479074E0,1.265866609E0
9.509491917E0,4.915198714E-1,-2.491038121E-1,-1.538915239E0,1.634596160E0
9.519440917E0,5.247729868E-1,-2.346262524E-1,-1.809626706E0,1.898732467E0
9.529390917E0,6.128805864E-1,-2.286846042E-1,-1.977005008E0,2.082418801E0
9.539340917E0,6.233634746E-1,-2.655080295E-1,-2.074497973E0,2.182342406E0
9.549289917E0,6.436942434E-1,-4.099408342E-1,-2.007758439E0,2.147903097E0
9.559239917E0,6.922910374E-1,-6.211508882E-1,-1.922705424E0,2.135858482E0
9.569188917E0,7.883274615E-1,-9.320052445E-1,-1.577219764E0,1.994421256E0
9.579138917E0,9.698051548E-1,-9.897634560E-1,-1.095836626E0,1.766638516E0
9.589088917E0,1.037349266E0,-8.345672429E-1,-1.016708010E0,1.675198842E0
9.599037917E0,1.029054991E0,-6.502594972E-1,-1.342988491E0,1.812569909E0
9.608987917E0,1.107882475E0,-4.080602235E-1,-2.021177799E0,2.340742706E0
9.618936917E0,1.141671780E0,-2.006974912E-1,-2.916888791E0,3.138779086E0
9.628886917E0,1.092277426E0,-2.357386851E-1,-3.779495772E0,3.941222017E0
9.638836917E0,9.628580779E-1,-3.674223670E-1,-4.370235291E0,4.490105942E0
9.648785917E0,8.787774557E-1,-6.941893360E-1,-4.629174559E0,4.762709916E0
9.658735917E0,9.100670761E-1,-1.337642089E0,-4.634190300E0,4.908485324E0
9.668684917E0,7.166821128E-1,-1.414406968E0,-4.133578593E0,4.427262394E0
9.678634917E0,6.835278153E-1,-1.548693538E0,-3.641381029E0,4.015634165E0
9.688584917E0,3.457487851E-1,-1.829508408E0,-2.640568675E0,3.230982229E0
9.698533917E0,2.179304051E-1,-2.079503775E0,-1.415930752E0,2.525210784E0
9.708483917E0,2.612834162E-1,-2.353523011E0,-3.948268050E-1,2.400672363E0
9.718432917E0,2.217182314E-1,-2.046320241E0,3.294274521E-1,2.084492252E0
9.728382917E0,3.481765491E-1,-2.181295613E0,9.200944662E-2,2.210824100E0
9.738332917E0,4.305000830E-1,-1.795323247E0,-2.661412829E-1,1.865300797E0
9.748281917E0,5.645176810E-1,-1.462987390E0,-1.350979296E0,2.069820614E0
9.758231917E0,4.755657434E-1,-1.501394826E0,-2.943556772E0,3.338394175E0
9.768180917E0,4.127268863E-1,-1.476010893E0,-4.439732665E0,4.696826352E0
9.778130917E0,2.680451363E-1,-1.699349388E0,-5.437173808E0,5.702849775E0
9.788080917E0,-1.100714958E-1,-2.298511237E0,-5.893388191E0,6.326712733E0
9.798029917E0,-3.031161511E-1,-3.331691439E0,-5.636109533E0,6.554218329E0
9.807981000E0,-6.186438945E-1,-3.748044768E0,-4.365920046E0,5.787211565E0
9.817930000E0,-7.301830414E-1,-4.145034458E0,-2.836890987E0,5.075670242E0
9.827880000E0,-6.494534585E-1,-4.218385440E0,-1.542815039E0,4.538374572E0
9.837830000E0,-2.607174057E-1,-4.209865462E0,-9.920073250E-1,4.333015036E0
9.847779000E0,8.117631018E-2,-4.308375258E0,-9.732770853E-1,4.417686639E0
9.857729000E0,3.930401883E-1,-4.706349034E0,-1.923771372E0,5.099519400E0
9.867679000E0,1.163943824E-1,-4.865037205E0,-3.285415989E0,5.871634600E0
9.877628000E0,-5.064562914E-1,-4.896322732E0,-3.765551916E0,6.197568516E0
9.887578000E0,-1.428644353E0,-4.753606231E0,-3.020852285E0,5.810623496E0
9.897527000E0,-1.780209364E0,-5.090351474E0,-2.432855840E0,5.916046910E0
9.907477000E0,-2.161522669E0,-5.200528804E0,-1.715668674E0,5.887376248E0
9.917427000E0,-2.338183133E0,-5.099117619E0,-1.400635898E0,5.781857987E0
9.927376000E0,-2.097903208E0,-5.272102232E0,-1.287280606E0,5.818363273E0
9.937326000E0,-1.875587684E0,-5.372779006E0,-1.015411683E0,5.780626635E0
9.947275000E0,-1.821901765E0,-5.284545107E0,-5.800168955E-1,5.619800942E0
9.957225000E0,-2.082510121E0,-5.023033065E0,6.881535476E-1,5.480991231E0
9.967175000E0,-2.672275202E0,-3.981832237E0,2.322778936E0,5.328352907E0
9.977124000E0,-2.658643295E0,-3.728928466E0,3.208868920E0,5.591970263E0
9.987074000E0,-2.595797422E0,-3.099520140E0,4.601759888E0,6.125470057E0
9.997023000E0,-2.166650092E0,-2.261740437E0,5.453975197E0,6.289331274E0
1.000697300E1,-1.260947378E0,-1.725101110E0,5.778057709E0,6.160512399E0
1.001692300E1,-4.115738153E-1,-7.908645684E-1,5.663384455E0,5.733130319E0
1.002687200E1,4.969805861E-1,-1.908643456E0,5.598713080E0,5.935949604E0
1.003682200E1,8.398537105E-1,-2.528688051E0,4.924995139E0,5.599570932E0
1.004677100E1,2.170167777E-1,-1.019349198E0,5.072971795E0,5.178919955E0
1.005672100E1,-1.669976485E-1,-1.688948945E0,4.575812284E0,4.880419532E0
1.006667100E1,-6.270785031E-1,-1.444113747E0,3.934040020E0,4.237376882E0
1.007662000E1,-8.991447696E-1,-1.494129075E0,3.505775328E0,3.915525975E0
1.008657000E1,-9.622949910E-1,-1.432391834E0,3.044658639E0,3.499672019E0
1.009652000E1,-7.078832227E-1,-1.365039511E0,3.040508870E0,3.407216710E0
1.010646900E1,-2.387336290E-1,-1.371476126E0,3.181646038E0,3.472867982E0
1.011641900E1,4.116068521E-1,-1.304147776E0,3.196062348E0,3.476353859E0
1.012636800E1,1.074112758E0,-1.186806437E0,3.402014732E0,3.759778181E0
1.013631800E1,1.316164682E0,-9.726083100E-1,3.864731219E0,4.196951726E0
1.014626800E1,1.327196623E0,-8.244907361E-1,4.564685617E0,4.824685548E0
1.015621700E1,1.156576040E0,-8.937042278E-1,5.158337635E0,5.361419825E0
1.016616700E1,8.359021622E-1,-1.036742325E0,5.518717908E0,5.677130826E0
1.017611600E1,3.423854667E-1,-1.195473765E0,5.649997839E0,5.785227819E0
1.018606600E1,-1.726074672E-1,-1.496163322E0,5.424986456E0,5.630166611E0
1.019601600E1,-5.353424138E-1,-1.771162552E0,5.033869709E0,5.363156956E0
1.020596500E1,-6.624863175E-1,-1.960492471E0,4.740614887E0,5.172605568E0
1.021591500E1,-5.532053652E-1,-2.073456584E0,4.361073874E0,4.860475667E0
1.022586500E1,-4.397246504E-1,-2.269294454E0,3.849882215E0,4.490506448E0
1.023581400E1,-2.345464379E-1,-3.297347233E0,3.683036009E0,4.948966059E0
1.024576400E1,-2.706535792E-1,-3.969979931E0,3.281924617E0,5.158005739E0
1.025571300E1,-7.650292307E-1,-2.853797334E0,3.099096217E0,4.281801759E0
1.026566300E1,-9.667236722E-1,-2.557574465E0,3.021712410E0,4.075105851E0
1.027561300E1,-9.756792676E-1,-2.793097973E0,2.618690440E0,3.951061369E0
1.028556200E1,-9.736511609E-1,-2.996731351E0,2.328459945E0,3.917923058E0
1.029551200E1,-8.794124633E-1,-3.223661790E0,2.767804087E0,4.338905517E0
1.030546200E1,-8.827076617E-1,-3.782617015E0,2.930704592E0,4.865839466E0
1.031541100E1,-9.394323778E-1,-4.664605177E0,2.858389737E0,5.550807738E0
1.032536100E1,-1.511498814E0,-4.511947825E0,3.008907593E0,5.629904683E0
1.033531000E1,-2.050334062E0,-3.978682927E0,3.164103806E0,5.481363014E0
1.034526000E1,-2.082814176E0,-4.307153190E0,2.922908499E0,5.606520988E0
1.035521000E1,-1.667068080E0,-5.430711465E0,3.041226908E0,6.443663873E0
1.036515900E1,-1.821002171E0,-5.084973205E0,2.836866721E0,6.100886345E0
1.037510900E1,-1.730931661E0,-5.138412078E0,2.554308211E0,5.993654439E0
1.038505800E1,-1.490904044E0,-5.540438560E0,2.300184418E0,6.181432088E0
1.039500800E1,-1.791783050E0,-5.003323855E0,1.526007803E0,5.529234658E0
1.040495800E1,-1.802683722E0,-4.984018688E0,6.007341653E-1,5.333947170E0
1.041490700E1,-1.911088176E0,-4.861367492E0,-6.357490468E-1,5.262065066E0
1.042485700E1,-1.866574785E0,-4.632464202E0,-1.223854396E0,5.142144066E0
1.043480700E1,-1.358029284E0,-4.251782396E0,-6.006984973E-1,4.503635839E0
1.044475600E1,-1.031833588E0,-3.629082581E0,-4.633146572E-1,3.801260502E0
1.045470600E1,-6.475077975E-1,-3.365532784E0,-3.880908126E-1,3.449158121E0
1.046465500E1,-3.331620687E-1,-3.424517449E0,-8.574842352E-1,3.545926668E0
1.047460500E1,-4.515757871E-1,-3.098003957E0,-1.888285205E0,3.656114088E0
1.048455500E1,-4.742758477E-1,-2.849421278E0,-3.472711077E0,4.517063363E0
1.049450400E1,-7.553801554E-1,-2.560916441E0,-5.203536027E0,5.848562164E0
1.050445400E1,-1.084134593E0,-2.136596865E0,-6.144224387E0,6.594837928E0
1.051440400E1,-1.333697850E0,-1.780534469E0,-7.028645575E0,7.372307072E0
1.052435300E1,-1.396018059E0,-1.488243707E0,-7.197406159E0,7.481068852E0
1.053430300E1,-1.254013165E0,-1.478011372E0,-7.287161504E0,7.540543045E0
1.054425200E1,-9.053279078E-1,-1.886537911E0,-6.920262755E0,7.229708190E0
1.055420200E1,-9.253563756E-1,-1.528945298E0,-6.177429555E0,6.430753770E0
1.056415200E1,-5.075114214E-1,-1.751848467E0,-4.869120315E0,5.199507048E0
1.057410100E1,5.807045281E-2,-1.959276835E0,-3.215294425E0,3.765668086E0
1.058405100E1,6.135138398E-1,-1.965669742E0,-2.334505527E0,3.112904242E0
1.059400100E1,1.005619935E0,-1.761937692E0,-2.210293125E0,3.000181925E0
1.060395000E1,1.246619945E0,-1.458433870E0,-2.586137529E0,3.220123905E0
1.061390000E1,1.312108176E0,-1.353433080E0,-3.314824560E0,3.813328052E0
1.062384900E1,1.164995738E0,-1.226199860E0,-3.811324505E0,4.169769256E0
1.063379900E1,9.229508311E-1,-1.167275129E0,-3.749262743E0,4.033774979E0
1.064374900E1,6.618896091E-1,-1.203512663E0,-3.139635547E0,3.426930398E0
1.065369800E1,4.611582041E-1,-1.091135464E0,-2.138580533E0,2.444743379E0
1.066364800E1,2.820919025E-1,-8.373320257E-1,-1.402331883E0,1.657478649E0
1.067359800E1,2.696116054E-1,-8.064319760E-1,-1.049741271E0,1.350918090E0
1.068354700E1,4.465313941E-1,-7.858566474E-1,-5.405493593E-1,1.053164074E0
1.069349700E1,7.740976775E-1,-7.041977958E-1,1.662141216E-1,1.059598454E0
1.070344600E1,1.044004567E0,-5.945144089E-1,6.883125919E-1,1.384618050E0
1.071339600E1,1.227308346E0,-4.844779965E-1,8.244696862E-1,1.555877556E0
1.072334600E1,1.101452876E0,-3.244076174E-1,2.168708897E-1,1.168534006E0
1.073329500E1,7.979344368E-1,-1.835440993E-2,-6.568738675E-1,1.033692182E0
1.074324500E1,4.625960344E-1,2.516292246E-1,-1.360278708E0,1.458653667E0
1.075319500E1,2.275151610E-1,3.866793678E-1,-1.863355016E0,1.916605332E0
1.076314400E1,5.649228930E-2,4.460691717E-1,-2.035834429E0,2.084895899E0
1.077309400E1,4.646022141E-2,2.057776983E-1,-1.733798844E0,1.746585653E0
1.078304300E1,1.331984031E-1,-1.594685543E-1,-1.167770827E0,1.186111605E0
1.079299300E1,1.724431604E-1,-4.172246376E-1,-4.235664546E-1,6.190489345E-1
1.080294300E1,2.571260458E-1,-5.961498021E-1,2.867778611E-1,7.097534301E-1
1.081289142E1,3.290058678E-1,-6.757494105E-1,7.113400966E-1,1.034836634E0
1.082284142E1,3.103696221E-1,-4.887922914E-1,7.776177013E-1,9.695032212E-1
1.083279142E1,2.314632010E-1,-2.279864466E-1,5.964885020E-1,6.792286554E-1
1.084274042E1,2.532288766E-1,-1.877994105E-2,4.062803310E-1,4.791046415E-1
1.085269042E1,2.269497353E-1,9.356860667E-2,1.061152697E-2,2.457109501E-1
1.086264042E1,2.038380307E-1,6.709256038E-2,-3.844813263E-1,4.403149381E-1
1.087258942E1,2.261819959E-1,-7.938603893E-2,-4.872566664E-1,5.430280816E-1
1.088253942E1,2.273683959E-1,-2.068008149E-1,-3.457563865E-1,4.626126277E-1
1.089248842E1,1.758222663E-1,-2.495682272E-1,-1.370178044E-1,3.346216492E-1
1.090243842E1,6.345281482E-2,-1.825516807E-1,7.418128610E-2,2.070126543E-1
1.091238842E1,-4.952006936E-2,-1.134633194E-1,1.978627610E-1,2.334005877E-1
1.092233742E1,-2.103430581E-1,-2.339514837E-2,3.034412563E-1,3.699569314E-1
1.093228742E1,-3.478643078E-1,7.194925770E-2,3.067098498E-1,4.693156766E-1
1.094223742E1,-4.246932131E-1,1.660433829E-2,2.514782202E-1,4.938434211E-1
1.095218642E1,-4.156288594E-1,-4.481042951E-2,1.595389402E-1,4.474460826E-1
1.096213642E1,-4.318437731E-1,-9.612383991E-3,-1.117648494E-1,4.461757769E-1
1.097208542E1,-3.993028486E-1,-5.605447903E-2,-2.835045898E-1,4.929094460E-1
1.098203542E1,-2.675358438E-1,-1.633583415E-1,-1.952999264E-1,3.693283589E-1
1.099198542E1,-1.369154781E-1,-1.876621471E-1,1.144089603E-1,2.589446656E-1
1.100193442E1,-7.880526423E-2,-2.317324653E-1,5.289514071E-1,5.828377100E-1
1.101188442E1,-8.734687686E-2,-2.194648607E-1,6.132004291E-1,6.571218062E-1
1.102183442E1,-1.680068779E-1,-1.934959142E-1,2.873918188E-1,3.850467989E-1
1.103178342E1,-2.925157338E-1,-1.331558646E-1,-2.619195932E-1,4.146056104E-1
1.104173342E1,-3.755637378E-1,-5.885617241E-2,-6.666989440E-1,7.674631275E-1
1.105168342E1,-3.446711433E-1,-4.601641774E-2,-7.015126812E-1,7.829659952E-1
1.106163242E1,-2.758137470E-1,-4.290833026E-3,-4.701003510E-1,5.450559369E-1
1.107158242E1,-2.098092073E-1,-1.277031898E-3,-3.383754462E-1,3.981450450E-1
1.108153142E1,-1.468697780E-1,-1.401447491E-1,-2.583428514E-1,3.285609704E-1
1.109148142E1,-1.332112670E-1,-1.997563818E-1,-2.610512817E-1,3.546767901E-1
1.110143142E1,-1.265162051E-1,-3.014124186E-1,-2.561402053E-1,4.152873716E-1
1.111138042E1,-9.423138857E-2,-2.881905484E-1,-2.808318275E-1,4.132793996E-1
1.112133042E1,-1.089102387E-2,-2.243398306E-1,-2.668072808E-1,3.487593713E-1
1.113128042E1,2.960503757E-2,-1.255199857E-1,-1.894345844E-1,2.291662864E-1
1.114122942E1,6.114141047E-2,-1.110605523E-2,-1.708439469E-2,6.444759948E-2
1.115117942E1,8.835610628E-2,8.435281008E-2,6.402525723E-2,1.379182064E-1
1.116112842E1,1.100510305E-1,1.111251640E-1,1.041085052E-1,1.878792492E-1
1.117107842E1,1.149545056E-1,1.359408934E-1,5.237409532E-2,1.855734645E-1
1.118102842E1,9.186326623E-2,1.906772639E-1,-1.370493793E-1,2.521491841E-1
1.119097742E1,5.478958011E-2,1.485318491E-1,-2.697969621E-1,3.128162545E-1
1.120092742E1,3.047276437E-2,1.541663723E-1,-2.034860283E-1,2.571039156E-1
1.121087742E1,3.633927584E-2,2.435599208E-2,3.221815825E-2,5.433016694E-2
1.122082642E1,2.710944593E-2,-6.927795723E-2,2.049799919E-1,2.180622721E-1
1.123077642E1,-1.599330425E-2,-1.045229267E-1,3.103012097E-1,3.278226178E-1
1.124072642E1,-1.051493096E-1,-1.156042774E-1,3.182791507E-1,3.545734678E-1
1.125067542E1,-1.627385366E-1,-9.432845235E-2,1.946549785E-1,2.706884720E-1
1.126062542E1,-1.567147350E-1,-6.711273327E-2,-1.793107152E-2,1.714209744E-1
1.127057442E1,-6.010002136E-2,-7.571851909E-2,-2.212527931E-1,2.414500055E-1
1.128052442E1,-1.911162436E-2,-3.873488009E-2,-4.165813708E-1,4.188146173E-1
1.129047442E1,-5.503867149E-2,2.714496776E-2,-5.239116919E-1,5.274936640E-1
1.130042342E1,-1.042915231E-1,-4.611815929E-2,-4.434668684E-1,4.578935136E-1
1.131037342E1,-1.642786932E-1,-1.277992304E-1,-2.787256604E-1,3.478622229E-1
1.132032342E1,-2.435230833E-1,-1.637313938E-1,-9.179076076E-2,3.074687060E-1
1.133027242E1,-3.092545581E-1,-1.407692318E-1,-2.999036908E-2,3.411066997E-1
1.134022242E1,-2.857779872E-1,-6.257587865E-2,-9.946932435E-2,3.089966748E-1
1.135017242E1,-2.236396265E-1,-1.961667761E-2,-2.431716657E-1,3.309561233E-1
1.136012142E1,-1.278973174E-1,-7.084925026E-3,-2.685333788E-1,2.975199078E-1
1.137007142E1,-5.947261512E-2,-1.037296057E-2,-2.132748520E-1,2.216545799E-1
1.138002042E1,-3.407698810E-2,-4.144141003E-2,-1.118490493E-1,1.240517691E-1
1.138997042E1,-4.383365214E-2,-1.349636775E-1,7.820767879E-2,1.620278505E-1
1.139992042E1,-2.804266155E-2,-1.886782470E-1,2.934852022E-1,3.500277642E-1
1.140986942E1,-1.078343511E-2,-2.001874678E-1,1.973920602E-1,2.813448598E-1
1.141981942E1,6.269267678E-2,-2.152379085E-1,7.738380611E-2,2.371623546E-1
1.142976942E1,1.438491064E-1,-1.818475297E-1,-1.828506196E-1,2.952887376E-1
1.143971842E1,1.344555545E-1,-1.472482391E-1,-3.988128519E-1,4.458834275E-1
1.144966842E1,5.199285686E-2,-1.091949981E-1,-4.128105015E-1,4.301619636E-1
1.145961842E1,-7.918884158E-2,-7.590036750E-2,-2.892488945E-1,3.093487698E-1
1.146956742E1,-2.134526074E-1,-1.392898862E-1,-2.666955990E-1,3.689040939E-1
1.147951742E1,-2.612307912E-1,-2.610539129E-1,-2.731111640E-1,4.593260058E-1
1.148946742E1,-1.545834249E-1,-4.306010936E-1,-2.251096165E-1,5.098898671E-1
1.149941642E1,7.038293481E-3,-5.359556405E-1,-2.231116229E-1,5.805831400E-1
1.150936642E1,8.385901272E-2,-4.515798801E-1,-2.962620449E-1,5.465600803E-1
1.151931542E1,7.001105189E-2,-3.088588478E-1,-3.716700768E-1,4.882970216E-1
1.152926542E1,-1.594535708E-2,-1.934390500E-1,-2.999849671E-1,3.573008550E-1
1.153921542E1,-6.360893548E-2,-1.375848381E-1,-1.765461516E-1,2.326891231E-1
1.154916442E1,-2.709833622E-2,-9.551733747E-2,-7.582903147E-2,1.249316757E-1
1.155911442E1,6.868139505E-3,-3.595789120E-2,-2.320391518E-1,2.349091510E-1
1.156906442E1,4.071357787E-2,2.629639059E-2,-5.681441242E-1,5.702077178E-1
1.157901342E1,9.434774816E-2,4.478426322E-2,-8.852661109E-1,8.914051912E-1
1.158896342E1,1.187370694E-1,3.525885656E-2,-1.015808709E0,1.023332307E0
1.159891342E1,1.514656895E-1,-1.161432445E-2,-8.620093954E-1,8.752924913E-1
1.160886242E1,1.766671890E-1,-1.128459996E-1,-6.337645018E-1,6.675349871E-1
1.161881242E1,2.437815303E-1,-2.110461858E-1,-4.989089978E-1,5.940371328E-1
1.162876242E1,5.149338770E-1,-3.450912657E-1,-7.630546260E-1,9.831059158E-1
1.163871142E1,6.966863894E-1,-5.180390409E-1,-1.698690991E0,1.907691657E0
1.164866142E1,6.284710175E-1,-4.248728688E-1,-3.126230221E0,3.216956352E0
1.165861042E1,5.667776299E-1,-3.133774298E-1,-4.470945979E0,4.517610015E0
1.166856042E1,5.417866302E-1,-3.205828075E-1,-5.175232580E0,5.213380702E0
1.167851042E1,4.288839126E-1,-3.851414770E-1,-5.061327065E0,5.094046233E0
1.168845942E1,3.027080154E-1,-5.365215048E-1,-4.583874425E0,4.625082941E0
1.169840942E1,1.776647240E-1,-8.058848959E-1,-4.317352488E0,4.395514501E0
1.170835942E1,1.940667486E-1,-1.076098472E0,-3.957693762E0,4.105970011E0
1.171830842E1,2.645069861E-1,-1.318839490E0,-3.851224735E0,4.079366803E0
1.172825842E1,3.402196580E-1,-1.589615861E0,-4.138790216E0,4.446595603E0
1.173820842E1,3.308062255E-1,-1.645278138E0,-4.565382020E0,4.864060639E0
1.174815742E1,3.328796482E-1,-1.552108896E0,-4.881420518E0,5.133041707E0
1.175810742E1,3.581419587E-1,-1.833538894E0,-4.663286045E0,5.023581121E0
1.176805742E1,2.588199842E-1,-1.928367576E0,-3.976965015E0,4.427396529E0
1.177800642E1,1.065386081E-1,-1.919991147E0,-3.459736106E0,3.958218084E0
1.178795642E1,-9.814668417E-2,-1.726931874E0,-3.617360083E0,4.009640936E0
1.179790542E1,-3.933579844E-1,-1.735613235E0,-4.988778906E0,5.296696968E0
1.180785542E1,-5.166950583E-2,-2.638502269E0,-5.338460528E0,5.955125924E0
1.181780613E1,2.793010265E-2,-3.193700657E0,-5.267964157E0,6.160515428E0
1.182775513E1,1.454766789E-1,-3.931719260E0,-4.972095045E0,6.340450216E0
1.183770512E1,4.948159468E-1,-4.787337649E0,-3.814838682E0,6.141371081E0
1.184765512E1,1.071168977E0,-5.384347723E0,-2.286145545E0,5.946853355E0
1.185760412E1,1.414297625E0,-5.289136341E0,-1.101120170E0,5.584591895E0
1.186755412E1,1.489345176E0,-5.238431625E0,-1.049808514E0,5.546297221E0
1.187750413E1,1.032732597E0,-5.421210324E0,-2.074582466E0,5.895756983E0
1.188745313E1,2.499453726E-1,-5.708765280E0,-3.619082088E0,6.763891548E0
1.189740312E1,-5.251016003E-1,-5.885343592E0,-4.720168344E0,7.562604715E0
1.190735312E1,-1.239499791E0,-6.312583852E0,-4.968765056E0,8.128573110E0
1.191730212E1,-2.081825996E0,-7.110804217E0,-4.221518962E0,8.527529446E0
1.192725212E1,-2.877761562E0,-7.506763628E0,-2.925481274E0,8.555200317E0
1.193720213E1,-3.259844653E0,-7.552568961E0,-1.785833654E0,8.417665170E0
1.194715113E1,-3.356620165E0,-7.631919771E0,-8.016504885E-1,8.375902449E0
1.195710112E1,-3.146967079E0,-7.602044007E0,3.778725109E-1,8.236337931E0
1.196705013E1,-2.768630299E0,-7.069372602E0,1.659958743E0,7.771538184E0
1.197700012E1,-2.253796117E0,-6.458910424E0,2.901423490E0,7.430705153E0
1.198695012E1,-1.911601854E0,-5.541079414E0,4.444031538E0,7.355759583E0
1.199689912E1,-1.529917836E0,-4.830935073E0,6.050724485E0,7.892391847E0
1.200684912E1,-1.177266413E0,-3.815818090E0,7.728462564E0,8.699169932E0
1.201679913E1,-5.649261090E-1,-2.564548439E0,8.399705379E0,8.800630697E0
1.202674813E1,2.495319745E-1,-2.084145879E0,8.085671892E0,8.353683031E0
1.203669812E1,7.692959440E-1,-2.087269462E0,7.222210048E0,7.557038311E0
1.204664812E1,7.432123920E-1,-2.008860639E0,6.018420957E0,6.388213878E0
1.205659712E1,2.481947163E-1,-2.374323311E0,4.652885018E0,5.229565067E0
1.206654712E1,-4.783838090E-1,-2.588929574E0,3.298898499E0,4.220679888E0
1.207649713E1,-1.210574492E0,-2.426550057E0,2.544487227E0,3.718608749E0
1.208644613E1,-1.760046995E0,-2.244275388E0,2.505415547E0,3.796267181E0
1.209639612E1,-1.893890346E0,-1.936145250E0,2.703030971E0,3.826467758E0
1.210634612E1,-1.280411297E0,-1.742857350E0,2.859463286E0,3.585182717E0
1.211629512E1,-4.190959659E-1,-1.373309228E0,2.803229443E0,3.149557902E0
1.212624512E1,3.824327543E-1,-9.713722086E-1,2.637830424E0,2.836894098E0
1.213619412E1,1.011795180E0,-6.863713163E-1,2.417168784E0,2.708789398E0
1.214614412E1,1.144837755E0,-4.796009070E-1,2.477745354E0,2.771261906E0
1.215609413E1,8.925923797E-1,-2.466297090E-1,2.794725838E0,2.944153508E0
1.216604313E1,5.396927422E-1,-1.278838688E-1,3.142303632E0,3.190876785E0
1.217599312E1,2.307100797E-1,-1.050306112E-1,3.341005761E0,3.350608611E0
1.218594312E1,1.484227985E-2,-9.063301206E-2,3.341109256E0,3.342371269E0
1.219589212E1,-1.481140655E-1,-1.795679927E-2,2.977158381E0,2.980894539E0
1.220584212E1,-1.196726239E-1,-1.303344369E-2,2.197650275E0,2.200944829E0
1.221579213E1,-4.376640916E-3,-4.743904531E-2,1.284430965E0,1.285314173E0
1.222574113E1,1.782944691E-1,-7.994488657E-2,7.961229694E-1,8.197511116E-1
1.223569112E1,2.974560463E-1,-2.113195431E-1,5.425023293E-1,6.537926477E-1
1.224564112E1,3.340982080E-1,-2.708652484E-1,7.139830381E-1,8.335234694E-1
1.225559012E1,5.016975349E-1,-2.902546155E-1,1.414712485E0,1.528842560E0
1.226554012E1,8.898947668E-1,-3.122506714E-1,2.373490376E0,2.553990944E0
1.227549013E1,1.194503712E0,-2.746390414E-1,2.995564539E0,3.236614378E0
1.228543913E1,1.162729942E0,-2.871444815E-1,3.340325730E0,3.548544610E0
1.229538913E1,9.148062444E-1,-3.471714127E-1,3.504883043E0,3.638901427E0
1.230533912E1,6.559997088E-1,-6.484895450E-1,3.231142426E0,3.360231493E0
1.231528812E1,3.149667031E-1,-9.075147665E-1,2.558346298E0,2.732750053E0
1.232523812E1,1.019994146E-1,-1.049605615E0,2.139658760E0,2.385417246E0
1.233518812E1,-5.974743426E-2,-1.204458012E0,2.039988876E0,2.369777093E0
1.234513712E1,-1.028683108E-1,-1.317893411E0,1.991583871E0,2.390362158E0
1.235508713E1,1.643652320E-2,-1.397281643E0,2.142553716E0,2.557968447E0
1.236503613E1,2.005302608E-1,-1.573613786E0,2.426993130E0,2.899442771E0
1.237498612E1,1.949847615E-1,-1.675185184E0,2.300903771E0,2.852792075E0
1.238493612E1,1.639588505E-2,-1.843052899E0,2.186910110E0,2.860015496E0
1.239488512E1,-3.566684604E-2,-2.023156496E0,2.407913226E0,3.145231381E0
1.240483512E1,1.002455422E-1,-2.214093815E0,2.690823739E0,3.486085625E0
1.241478513E1,2.887439874E-1,-2.594612483E0,2.660144568E0,3.727164626E0
1.242473413E1,1.410938984E-1,-2.687889022E0,2.391368530E0,3.600458072E0
1.243468412E1,-1.109146643E-1,-2.759589919E0,2.429194168E0,3.678127633E0
1.244463412E1,-2.227815476E-1,-3.089410304E0,2.661722732E0,4.083975458E0
1.245458312E1,-5.130437645E-1,-3.479000342E0,2.879318676E0,4.545011917E0
1.246453312E1,-7.023429859E-1,-3.773092486E0,3.264627968E0,5.038581978E0
1.247448312E1,-5.293390775E-1,-4.249470992E0,3.692823371E0,5.654657197E0
1.248443212E1,-1.759918356E-1,-4.715257852E0,3.807362724E0,6.063055389E0
1.249438213E1,-1.121194831E-1,-4.786666973E0,3.608113588E0,5.995267730E0
1.250433212E1,-4.641212806E-1,-4.725854176E0,2.965349345E0,5.598428618E0
1.251428112E1,-8.966447926E-1,-4.817112840E0,1.965165273E0,5.279244506E0
1.252423112E1,-1.105745902E0,-4.953236021E0,1.219583589E0,5.219636502E0
1.253418112E1,-1.127525903E0,-5.023614278E0,7.010606915E-1,5.196104422E0
1.254413012E1,-9.419118896E-1,-4.745202028E0,2.662862939E-1,4.845105642E0
1.255408013E1,-5.554837328E-1,-3.731779568E0,5.464047611E-1,3.812256430E0
1.256403012E1,-1.247883528E-1,-3.148810998E0,9.188969564E-1,3.282522574E0
1.257397912E1,3.616941422E-1,-3.409049517E0,7.320398247E-1,3.505470520E0
1.258392912E1,3.951203352E-1,-3.094259692E0,-7.873451293E-2,3.120378542E0
1.259387812E1,1.413266176E-1,-2.648674378E0,-1.668580754E0,3.133625840E0
1.260382812E1,3.647960901E-2,-2.427388548E0,-3.281899474E0,4.082206521E0
1.261377812E1,1.773980910E-1,-2.685403078E0,-4.423581194E0,5.177927225E0
1.262372813E1,6.906087935E-2,-2.177721795E0,-5.496034804E0,5.912160366E0
1.263367713E1,-1.035325545E-1,-1.514299923E0,-6.561593378E0,6.734859382E0
1.264362712E1,-4.084040397E-1,-1.380232039E0,-7.159074737E0,7.302341092E0
1.265357712E1,-3.938479811E-1,-9.802329330E-1,-5.991357704E0,6.083776786E0
1.266352612E1,-2.052846318E-1,-9.546620357E-1,-5.233540429E0,5.323858263E0
1.267347612E1,7.203009546E-2,-1.449959208E0,-5.605346162E0,5.790291498E0
1.268342512E1,-1.843042374E-3,-1.728274979E0,-7.062542469E0,7.270931434E0
1.269337513E1,-2.432646364E-1,-1.224226132E0,-8.939986351E0,9.026697251E0
1.270332512E1,-1.913425308E-1,-1.182123402E0,-8.042072128E0,8.130741160E0
1.271327412E1,6.716813564E-2,-1.609774430E0,-4.749097443E0,5.014958803E0
1.272322412E1,2.247266239E-1,-1.769977613E0,-2.052120094E0,2.719286614E0
1.273317412E1,3.706532460E-1,-1.837592769E0,-6.347152591E-1,1.979139831E0
1.274312312E1,4.061780047E-1,-1.836601519E0,-4.126140350E-1,1.925704041E0
1.275307313E1,3.681149697E-1,-1.700392970E0,-5.927801979E-1,1.837997074E0
1.276302313E1,3.772272706E-1,-1.352554244E0,-9.688526434E-1,1.705983247E0
1.277297213E1,3.177429610E-1,-8.795566703E-1,-1.871981998E0,2.092581450E0
1.278292212E1,2.591029894E-1,-6.509485915E-1,-2.715047584E0,2.803988554E0
1.279287212E1,2.373115861E-1,-5.527869239E-1,-3.061586913E0,3.120128939E0
1.280282112E1,1.525626272E-1,-5.947456663E-1,-2.750488143E0,2.818187855E0
1.281277087E1,1.776033282E-2,-5.717451319E-1,-1.958323739E0,2.040156805E0
1.282272088E1,-1.695458651E-2,-7.261904164E-1,-1.178322712E0,1.384227002E0
1.283266988E1,7.302763045E-2,-8.439510007E-1,-4.244564009E-1,9.474964711E-1
1.284261987E1,2.338646525E-1,-9.156021235E-1,2.417823672E-1,9.754376645E-1
1.285256987E1,3.706187475E-1,-8.897748989E-1,8.836932099E-1,1.307658715E0
1.286251887E1,3.946689302E-1,-6.605630951E-1,1.339421105E0,1.544718765E0
1.287246887E1,3.001253003E-1,-2.511033406E-1,1.235930650E0,1.296399883E0
1.288241888E1,1.127793413E-1,2.633613704E-1,4.777952868E-1,5.571056698E-1
1.289236787E1,-1.966827929E-2,6.334429049E-1,-5.505802578E-1,8.395090085E-1
1.290231788E1,-3.171646714E-2,6.732580581E-1,-1.217863339E0,1.391931557E0
1.291226787E1,1.241053981E-1,4.550028402E-1,-1.109331415E0,1.205423545E0
1.292221687E1,2.427097356E-1,2.514515423E-1,-5.148297966E-1,6.222424072E-1
1.293216687E1,2.939523947E-1,3.278745778E-2,-3.045814633E-3,2.957909815E-1
1.294211687E1,3.001019114E-1,-1.968974588E-1,2.505952907E-1,4.377530882E-1
1.295206587E1,2.881466943E-1,-3.053479602E-1,5.953021020E-1,7.284576081E-1
1.296201588E1,1.551967978E-1,-3.053794621E-1,8.425229645E-1,9.094985473E-1
1.297196587E1,-1.580970168E-2,-1.281192923E-1,9.353171074E-1,9.441835580E-1
1.298191487E1,-6.907315850E-2,2.944102317E-2,8.059445375E-1,8.094346624E-1
1.299186487E1,-7.636814475E-2,1.486240889E-1,2.735549676E-1,3.205519204E-1
1.300181487E1,-2.503193021E-2,1.368685542E-1,-3.559118307E-1,3.821424209E-1
1.301176387E1,6.029473364E-2,9.853091933E-2,-7.678423262E-1,7.764828619E-1
1.302171388E1,6.400420725E-2,-5.385848410E-2,-9.437306660E-1,9.474306544E-1
1.303166387E1,5.618998826E-2,-2.212568861E-1,-7.837765735E-1,8.163440706E-1
1.304161288E1,2.217439592E-2,-2.364726569E-1,-3.188802445E-1,3.976124138E-1
1.305156287E1,2.876245379E-3,-2.944852223E-1,1.015830928E-1,3.115267944E-1
1.306151287E1,-2.796021581E-2,-3.155085938E-1,1.717105043E-1,3.602942460E-1
1.307146187E1,-1.477240562E-1,-2.495968055E-1,-4.454233468E-2,2.934365037E-1
1.308141187E1,-2.738631159E-1,-1.701332179E-1,-4.514950955E-1,5.547919784E-1
1.309136188E1,-3.857302916E-1,-1.095926819E-1,-7.787637556E-1,8.759402952E-1
1.310131088E1,-5.021694052E-1,-3.863869339E-2,-8.335451496E-1,9.738914603E-1
1.311126087E1,-5.192900527E-1,-5.161768489E-2,-6.814117080E-1,8.582822729E-1
1.312121087E1,-4.188161767E-1,-2.021634612E-1,-4.417220592E-1,6.414011479E-1
1.313115987E1,-2.781994110E-1,-3.028599700E-1,-2.401913399E-1,4.762467359E-1
1.314110987E1,-7.677628040E-2,-3.706017175E-1,7.236163259E-2,3.853264020E-1
1.315105988E1,7.463970780E-2,-3.666571127E-1,3.334456587E-1,5.011931081E-1
1.316100888E1,1.242229271E-1,-3.280555491E-1,3.510820305E-1,4.962966563E-1
1.317095887E1,1.270319295E-1,-2.130992163E-1,1.118870562E-1,2.721527153E-1
1.318090887E1,3.122705519E-2,-6.642510071E-3,-1.992590761E-1,2.018004741E-1
1.319085787E1,9.055582881E-3,9.141485788E-2,-3.237954140E-1,3.365741373E-1
1.320080787E1,-2.143355370E-2,1.243222567E-1,-3.604714894E-1,3.819098263E-1
1.321075788E1,1.230897367E-2,8.158137605E-2,-1.698627841E-1,1.888396070E-1
1.322070687E1,8.707498133E-2,-5.916271269E-2,5.507200062E-2,1.188074249E-1
1.323065688E1,1.883604509E-1,-2.213796777E-1,1.696943843E-1,3.365780819E-1
1.324060687E1,1.946368521E-1,-2.726362970E-1,1.574105537E-1,3.701244886E-1
1.325055587E1,1.306776685E-1,-2.388679688E-1,1.502254951E-1,3.109698682E-1
1.326050587E1,2.153529525E-2,-1.023590914E-1,1.791060627E-1,2.074129558E-1
1.327045587E1,-1.482052821E-1,8.591964461E-2,1.079319996E-1,2.024754491E-1
1.328040487E1,-3.261097419E-1,1.904057338E-1,-6.208807468E-2,3.826967942E-1
1.329035488E1,-3.477450246E-1,9.813966751E-2,-1.238066053E-1,3.819503528E-1
1.330030487E1,-2.511542845E-1,-4.800885648E-2,-1.506301224E-2,2.561449185E-1
1.331025387E1,-2.082211035E-1,-6.150357239E-2,-1.245515406E-2,2.174714883E-1
1.332020387E1,-1.809935439E-1,-1.054595775E-1,-2.386622930E-1,3.175532640E-1
1.333015387E1,-1.962308031E-1,-1.032057682E-1,-4.167404151E-1,4.720492901E-1
1.334010287E1,-1.884183383E-1,-9.516197294E-2,-2.027662361E-1,2.926968018E-1
1.335005288E1,-1.013784403E-1,-1.135702503E-1,-4.343721092E-2,1.583116585E-1
1.336000287E1,-3.793439627E-2,-1.029097530E-1,-6.720789671E-2,1.286325661E-1
1.336995188E1,3.279118538E-2,-1.063207993E-1,1.078454608E-1,1.549516622E-1
1.337990187E1,8.101902008E-2,-7.241769277E-2,1.648102051E-1,1.974102519E-1
1.338985187E1,1.042576092E-1,-6.654387228E-2,-3.030377984E-2,1.273422754E-1
1.339980087E1,6.459243715E-2,-1.023106326E-1,-2.442229950E-1,2.725518662E-1
1.340975087E1,7.017243505E-3,-8.005452186E-2,-3.252560484E-1,3.350365133E-1
1.341970088E1,-8.327487588E-2,-4.957591027E-2,-4.635485458E-1,4.735712514E-1
1.342964988E1,-1.489718521E-1,-4.966040254E-2,-4.876285493E-1,5.122893425E-1
1.343959987E1,-2.064868194E-1,-8.887913972E-2,-3.097591728E-1,3.827362711E-1
1.344954987E1,-3.037669462E-1,-1.239855301E-1,1.010907573E-1,3.433163417E-1
1.345949887E1,-2.918625998E-1,-1.543156955E-1,3.900233173E-1,5.109944218E-1
1.346944887E1,-2.111406183E-1,-1.802192263E-1,3.333409935E-1,4.337920564E-1
1.347939888E1,-1.522919011E-1,-1.691302742E-1,3.601007760E-2,2.304226519E-1
1.348934788E1,-9.117154062E-2,-1.971293740E-1,-1.522702664E-1,2.652517181E-1
1.349929787E1,-1.268418950E-1,-1.808713371E-1,-2.328793967E-1,3.209923991E-1
1.350924787E1,-2.169866645E-1,-1.360692398E-1,-2.523026776E-1,3.595200853E-1
1.351919687E1,-3.085470450E-1,-1.865547576E-1,-1.940778583E-1,4.094754836E-1
1.352914687E1,-3.859676886E-1,-1.834507632E-1,-2.097384560E-1,4.760414468E-1
1.353909687E1,-4.423167211E-1,-1.776870896E-1,-2.052197278E-1,5.189719840E-1
1.354904587E1,-4.291020137E-1,-1.570165244E-1,-6.838318706E-2,4.620162198E-1
1.355899588E1,-3.992660111E-1,-8.176081248E-2,-3.486226916E-2,4.090397975E-1
1.356894587E1,-3.316032010E-1,-7.163847819E-2,-2.121206117E-1,4.001098704E-1
1.357889487E1,-2.551216203E-1,-6.386701696E-2,-4.813240814E-1,5.484878379E-1
1.358884487E1,-1.959144688E-1,-9.054793507E-2,-5.211412811E-1,5.640652821E-1
1.359879487E1,-9.912784696E-2,-1.067597790E-1,-3.639517522E-1,3.920266042E-1
1.360874387E1,-4.735659957E-3,-4.918940932E-2,-2.375133151E-1,2.425996688E-1
1.361869388E1,6.225413561E-2,-4.359932497E-2,-1.320511794E-1,1.523613879E-1
1.362864387E1,1.466066533E-1,-7.870483831E-2,-1.028876066E-2,1.667147893E-1
1.363859287E1,2.536510456E-1,-1.325365714E-1,4.341148317E-2,2.894639054E-1
1.364854287E1,3.013456142E-1,-1.752523821E-1,1.026367611E-1,3.633963144E-1
1.365849287E1,2.753424615E-1,-1.499969421E-1,8.549564838E-2,3.249954763E-1
1.366844288E1,2.112821209E-1,-1.040545647E-1,-1.529327559E-1,2.808129536E-1
1.367839188E1,1.704124224E-1,-8.432328165E-2,-4.678439105E-1,5.050036971E-1
1.368834188E1,1.125524694E-1,-2.096226811E-3,-5.499212766E-1,5.613250956E-1
1.369829187E1,6.349783838E-2,1.750824474E-2,-3.275610209E-1,3.341178482E-1
1.370824087E1,3.555691838E-2,-5.327909812E-3,4.933880568E-3,3.629082867E-2
1.371819087E1,-3.034880340E-2,-3.642464519E-2,1.550868702E-1,1.621719518E-1
1.372814087E1,-9.474009633E-2,-1.618572150E-1,6.246697426E-2,1.976754076E-1
1.373808987E1,-1.528128880E-1,-2.814487088E-1,-5.727581620E-2,3.253393206E-1
1.374803988E1,-2.597719109E-1,-2.835645238E-1,-7.589101195E-2,3.919817987E-1
1.375798987E1,-3.473520917E-1,-2.152256294E-1,-1.426726466E-1,4.328175496E-1
1.376793887E1,-3.565602869E-1,-1.278530248E-1,-2.834040177E-1,4.730744882E-1
1.377788887E1,-2.879420418E-1,-3.055608720E-2,-3.471550405E-1,4.520629558E-1
1.378783887E1,-2.398767596E-1,5.779972672E-2,-2.753436309E-1,3.697239285E-1
1.379778787E1,-1.842615527E-1,8.395286053E-2,-2.454228437E-1,3.181709836E-1
1.380773788E1,-1.309162349E-1,3.146606013E-2,-4.500309527E-1,4.697414522E-1
1.381768779E1,-9.986985862E-2,-7.407165080E-2,-5.705373895E-1,5.839293715E-1
1.382763679E1,-8.106638253E-2,-1.365824792E-1,-6.176723796E-1,6.377661801E-1
1.383758679E1,1.401343703E-2,-1.743277180E-1,-4.656593907E-1,4.974185339E-1
1.384753679E1,1.107907033E-1,-1.749352437E-1,-1.450916398E-1,2.528408657E-1
1.385748579E1,2.003215152E-1,-9.371084020E-2,2.270801282E-1,3.169792038E-1
1.386743579E1,2.933524704E-1,-2.386365652E-2,4.826782966E-1,5.653348423E-1
1.387738579E1,3.915763378E-1,-1.720206991E-2,4.538959622E-1,5.997078323E-1
1.388733479E1,3.662315816E-1,-4.305933461E-2,2.129263580E-2,3.693684529E-1
1.389728479E1,2.879765403E-1,-5.968559995E-2,-4.656781018E-1,5.507712348E-1
1.390723479E1,2.493626976E-1,-1.749656492E-1,-7.443680942E-1,8.042876308E-1
1.391718379E1,2.618400711E-1,-2.159777275E-1,-1.042715256E0,1.096568150E0
1.392713379E1,2.421846557E-1,-2.233880500E-1,-1.698131998E0,1.729799962E0
1.393708379E1,2.432827628E-1,-2.158723314E-1,-2.596677135E0,2.616967617E0
1.394703379E1,9.954943120E-2,-2.670478937E-1,-3.457591932E0,3.469317892E0
1.395698279E1,-6.317624152E-2,-3.721065715E-1,-3.671018811E0,3.690370395E0
1.396693279E1,-1.934896284E-1,-4.991542885E-1,-3.334988683E0,3.377683046E0
1.397688179E1,-2.341453189E-1,-8.607186225E-1,-2.910046964E0,3.043687551E0
1.398683179E1,-1.991509026E-1,-1.075488169E0,-2.686912537E0,2.901005836E0
1.399678179E1,-9.673341215E-2,-1.188007163E0,-3.149503893E0,3.367505478E0
1.400673179E1,1.286492693E-1,-1.058420877E0,-4.230515488E0,4.362804910E0
1.401668079E1,5.736907929E-1,-1.545934821E0,-5.631771483E0,5.868209747E0
1.402663079E1,5.369416273E-1,-1.573241026E0,-6.995980690E0,7.190767653E0
1.403658079E1,4.359783393E-1,-1.154280131E0,-7.579966090E0,7.679734739E0
1.404652979E1,5.585780793E-1,-2.095320493E0,-7.062076446E0,7.387509808E0
1.405647979E1,3.562106234E-1,-2.546267997E0,-6.535271552E0,7.022829983E0
1.406642979E1,2.029428220E-1,-3.172892171E0,-6.439900541E0,7.181973927E0
1.407637879E1,1.031478077E-1,-3.826152167E0,-6.770191042E0,7.777246725E0
1.408632879E1,8.580204248E-2,-4.522038950E0,-7.478758389E0,8.740024330E0
1.409627879E1,2.324654138E-1,-5.531452559E0,-6.788189941E0,8.759596466E0
1.410622779E1,4.015394086E-1,-6.114124090E0,-6.005079950E0,8.579320048E0
1.411617779E1,3.891550058E-1,-6.923254775E0,-4.594418709E0,8.318147725E0
1.412612779E1,5.506513014E-1,-6.888959686E0,-2.748386654E0,7.437379351E0
1.413607679E1,1.276080849E0,-6.818386717E0,-1.571810505E0,7.112620334E0
1.414602679E1,8.272915524E-1,-6.884541530E0,-9.541416335E-1,6.999407807E0
1.415597679E1,1.557440972E-1,-6.542928481E0,-5.527902129E-1,6.568085440E0
1.416592679E1,-2.597678179E-1,-6.545891849E0,-9.933018985E-1,6.625920924E0
1.417587579E1,-6.933946994E-1,-6.570554236E0,-1.098619316E0,6.697756607E0
1.418582579E1,-1.165317627E0,-6.594720778E0,-9.788214152E-1,6.768042455E0
1.419577579E1,-1.723889275E0,-6.536018826E0,-9.721311772E-1,6.829083053E0
1.420572479E1,-2.069921942E0,-6.470865056E0,-9.856394148E-1,6.864995009E0
1.421567479E1,-2.477560289E0,-6.023564168E0,-5.702150618E-1,6.538101826E0
1.422562479E1,-2.984225326E0,-5.592767631E0,-3.399565333E-1,6.348245507E0
1.423557379E1,-2.788490659E0,-5.341982891E0,7.101267993E-2,6.026400598E0
1.424552379E1,-2.136881332E0,-5.746840010E0,3.075673440E-1,6.138976266E0
1.425547379E1,-1.802343414E0,-5.709469870E0,5.479136351E-1,6.012212349E0
1.426542279E1,-1.535421235E0,-5.394303192E0,1.074515923E0,5.710570004E0
1.427537279E1,-1.496969653E0,-4.790295171E0,1.934665904E0,5.378733877E0
1.428532279E1,-1.727602549E0,-3.747737789E0,3.230919647E0,5.241086802E0
1.429527179E1,-1.426081519E0,-3.957555183E0,4.671851631E0,6.286664393E0
1.430522179E1,-1.122902218E0,-3.748440040E0,6.406041069E0,7.506602048E0
1.431517179E1,-6.772864974E-1,-2.926425599E0,7.801089660E0,8.359406897E0
1.432512179E1,4.315829873E-2,-2.393832546E0,8.211492278E0,8.553414659E0
1.433507079E1,5.910573158E-1,-1.656275289E0,7.900471861E0,8.093828032E0
1.434502079E1,7.418935525E-1,-1.521232089E0,7.112688775E0,7.311285436E0
1.435497079E1,5.916280040E-1,-1.654434586E0,5.598267522E0,5.867518790E0
1.436491979E1,1.152252316E-1,-1.753016303E0,4.662117187E0,4.982136055E0
1.437486979E1,-5.555372348E-1,-1.700271494E0,4.108235591E0,4.480752665E0
1.438481979E1,-1.076298739E0,-1.519697195E0,3.840862885E0,4.268503981E0
1.439476879E1,-1.183385231E0,-1.373803318E0,3.768060372E0,4.181628287E0
1.440471879E1,-8.287451702E-1,-1.244351810E0,3.760354911E0,4.046665175E0
1.441466879E1,-2.035433310E-1,-1.170400904E0,3.421018767E0,3.621413753E0
1.442461779E1,4.046436954E-1,-1.111649836E0,3.122962797E0,3.339520700E0
1.443456779E1,7.305692500E-1,-9.950809139E-1,3.043504398E0,3.284331968E0
1.444451779E1,6.879088417E-1,-6.955491060E-1,2.957149794E0,3.114761955E0
1.445446679E1,6.600910056E-1,-5.228936917E-1,3.543729020E0,3.642410371E0
1.446441679E1,5.978909567E-1,-6.441076416E-1,4.465544322E0,4.551201417E0
1.447436679E1,4.220467633E-1,-7.007151210E-1,4.705787702E0,4.776354577E0
1.448431679E1,2.281098229E-1,-7.155389822E-1,4.913152188E0,4.970220775E0
1.449426579E1,2.096220964E-1,-7.575465488E-1,5.202290570E0,5.261334942E0
1.450421579E1,3.036003006E-1,-8.580724651E-1,4.991519496E0,5.073827783E0
1.451416579E1,4.715235633E-1,-1.077457073E0,4.699882014E0,4.844805379E0
1.452411479E1,6.328868347E-1,-1.227638714E0,4.471463166E0,4.679917243E0
1.453406479E1,7.298044342E-1,-2.180879876E0,3.816297854E0,4.455668397E0
1.454401479E1,7.813172346E-1,-3.124004771E0,2.936351248E0,4.357983602E0
1.455396379E1,1.289223343E-1,-1.679888685E0,2.862770179E0,3.321761589E0
1.456391379E1,-1.004703677E-1,-1.361800153E0,3.190042347E0,3.470009240E0
1.457386379E1,-8.641015291E-2,-1.759143600E0,3.525682173E0,3.941127720E0
1.458381379E1,-1.664149734E-1,-1.991563990E0,3.645714986E0,4.157554429E0
1.459376279E1,-9.095460892E-2,-2.799008923E0,3.900245453E0,4.801524579E0
1.460371279E1,-5.186714172E-2,-3.599392759E0,4.345546008E0,5.642879454E0
1.461366279E1,-2.058377784E-1,-3.850362271E0,4.359616163E0,5.820129887E0
1.462361179E1,-4.323010254E-1,-4.314466887E0,4.420939422E0,6.192431999E0
1.463356179E1,-9.918368787E-1,-4.583004359E0,4.130625165E0,6.248978604E0
1.464351179E1,-1.598877851E0,-4.942125142E0,3.481540958E0,6.253170295E0
1.465346079E1,-1.791159444E0,-5.303695323E0,3.650371124E0,6.683011714E0
1.466341079E1,-1.813544925E0,-5.552241164E0,3.495846463E0,6.807148422E0
1.467336079E1,-1.947549951E0,-5.582453728E0,2.765440643E0,6.527204791E0
1.468330979E1,-1.836889641E0,-5.523340132E0,1.920917054E0,6.129549093E0
1.469325979E1,-1.181398348E0,-5.952788301E0,1.239057156E0,6.194082115E0
1.470320979E1,-1.169484353E0,-5.540991706E0,-2.991543701E-1,5.670959009E0
1.471315979E1,-1.328380100E0,-4.902278706E0,-2.167976241E0,5.522413528E0
1.472310879E1,-1.014577870E0,-3.992377106E0,-2.579598588E0,4.860326335E0
1.473305879E1,-6.685981196E-1,-3.204621502E0,-1.487695969E0,3.595811690E0
1.474300879E1,-6.715813690E-1,-3.070294002E0,-9.961433530E-1,3.296972607E0
1.475295779E1,-6.528182387E-1,-3.153447840E0,-8.612673837E-1,3.333494629E0
1.476290779E1,-6.948942178E-1,-3.247997025E0,-7.370105428E-1,3.402285583E0
1.477285779E1,-8.557107747E-1,-2.776662619E0,-1.187605167E0,3.138869584E0
1.478280679E1,-4.979108781E-1,-2.630923693E0,-1.976974602E0,3.328378479E0
1.479275679E1,-3.458171976E-1,-2.606431168E0,-3.062694960E0,4.036480322E0
1.480270679E1,-1.731652915E-2,-2.501731802E0,-4.243271774E0,4.925882380E0
1.481265679E1,-1.539630353E-2,-2.263008698E0,-5.410212296E0,5.864455857E0
1.482260963E1,-3.581717795E-1,-1.366361566E0,-5.974394347E0,6.139105698E0
1.483255963E1,-5.181901914E-1,-1.164497702E0,-6.342642049E0,6.469442335E0
1.484250962E1,-8.414961934E-1,-1.125396786E0,-6.924965671E0,7.066100998E0
1.485245862E1,-1.035606796E0,-1.043733841E0,-7.506709834E0,7.649349926E0
1.486240862E1,-7.939630079E-1,-1.144751801E0,-7.480887945E0,7.609501849E0
1.487235862E1,-4.687069595E-1,-1.075253842E0,-6.185016902E0,6.295259416E0
1.488230762E1,3.102708042E-2,-1.194624019E0,-4.365120732E0,4.525745047E0
1.489225763E1,3.620385432E-1,-1.545785864E0,-3.237593951E0,3.605903553E0
1.490220762E1,4.474646097E-1,-2.117138647E0,-2.560017432E0,3.352042643E0
1.491215762E1,4.474482375E-1,-2.201500667E0,-1.808575961E0,2.884053071E0
1.492210662E1,4.867239851E-1,-2.093305250E0,-1.192650145E0,2.457893707E0
1.493205662E1,5.673179126E-1,-1.841109869E0,-1.077292181E0,2.207281950E0
1.494200663E1,6.689512914E-1,-1.512134699E0,-1.446538002E0,2.196934084E0
1.495195563E1,7.367462486E-1,-1.111318591E0,-1.875791459E0,2.301394717E0
1.496190562E1,6.295697093E-1,-6.761967956E-1,-2.147764170E0,2.338052834E0
1.497185562E1,5.790158522E-1,-4.147248068E-1,-2.291139652E0,2.399286754E0
1.498180462E1,5.025447965E-1,-3.943969616E-1,-2.384760007E0,2.468841940E0
1.499175462E1,3.908547914E-1,-4.435461713E-1,-2.062690691E0,2.145738465E0
1.500170462E1,4.628123814E-1,-5.784659216E-1,-1.269350996E0,1.469717685E0
1.501165463E1,5.408417201E-1,-7.878216773E-1,-4.625714761E-1,1.061670915E0
1.502160363E1,5.110139036E-1,-7.249300490E-1,4.092536402E-1,9.768046517E-1
1.503155362E1,4.430645800E-1,-5.525665569E-1,9.422232538E-1,1.178736901E0
1.504150362E1,4.171152216E-1,-4.309928571E-1,1.095411533E0,1.248866037E0
1.505145262E1,4.137589198E-1,-2.639284042E-1,9.775591475E-1,1.093835697E0
1.506140262E1,3.632740599E-1,-7.476893127E-2,6.980651629E-1,7.904766963E-1
1.507135263E1,2.190945858E-1,1.051725523E-1,2.978793848E-1,3.844422338E-1
1.508130163E1,2.452088356E-2,2.022610366E-1,-8.818419814E-2,2.220073275E-1
1.509125162E1,-1.329738700E-1,2.196902709E-1,-3.029103291E-1,3.971152638E-1
1.510120162E1,-2.659167498E-1,2.207337065E-1,-3.782131112E-1,5.123282585E-1
1.511115162E1,-3.252157027E-1,1.993549705E-2,-3.229575080E-1,4.587638055E-1
1.512110062E1,-3.028705680E-1,-2.293077712E-1,-2.205160439E-1,4.392493148E-1
1.513105063E1,-2.981682372E-1,-3.374846229E-1,-1.088383180E-1,4.632989832E-1
1.514100062E1,-2.589913076E-1,-4.066340876E-1,1.064076304E-1,4.937108085E-1
1.515094963E1,-2.332202893E-1,-3.561407492E-1,1.937375504E-1,4.677201888E-1
1.516089962E1,-1.735582244E-1,-2.712247060E-1,1.947941422E-1,3.763376892E-1
1.517084962E1,-4.189003766E-2,-1.915916222E-1,2.348604333E-1,3.059763849E-1
1.518079962E1,5.576080263E-2,-6.795487851E-2,1.512540203E-1,1.749425943E-1
1.519074862E1,1.657767498E-1,-1.086310342E-2,4.751155078E-2,1.727926077E-1
1.520069863E1,2.598280442E-1,-2.620137334E-2,-1.424007511E-1,2.974476398E-1
1.521064862E1,2.884466565E-1,-1.581187977E-1,-2.115201026E-1,3.910802752E-1
1.522059762E1,1.685728884E-1,-2.317175549E-1,-1.387895107E-1,3.183902829E-1
1.523054762E1,6.194014013E-2,-2.942760381E-1,1.529058588E-1,3.373650385E-1
1.524049762E1,3.289643526E-3,-2.768938740E-1,4.098804617E-1,4.946544572E-1
1.525044662E1,-1.629619002E-2,-1.521477672E-1,3.531536990E-1,3.848792590E-1
1.526039663E1,-4.106850386E-2,-1.316339806E-2,1.259823543E-1,1.331594933E-1
1.527034662E1,-6.935499430E-2,4.809466437E-2,-3.321920156E-2,9.070130830E-2
1.528029662E1,-1.217478007E-1,3.836621314E-2,-1.140148580E-1,1.711545534E-1
1.529024562E1,-2.108909422E-1,-6.894598156E-3,-9.578265488E-2,2.317257905E-1
1.530019562E1,-2.418279755E-1,-1.071319543E-1,4.684555292E-2,2.686122320E-1
1.531014563E1,-2.058810478E-1,-1.373259526E-1,2.223134780E-1,3.326690632E-1
1.532009462E1,-2.286144376E-1,-6.610160351E-2,3.414189219E-1,4.161740781E-1
1.533004463E1,-2.490580577E-1,-2.236004502E-2,3.542371881E-1,4.336056655E-1
1.533999462E1,-1.341731340E-1,-7.012931183E-2,1.536063552E-1,2.156744366E-1
1.534994362E1,-7.396844745E-2,-4.879633024E-2,-2.659424776E-1,2.803173460E-1
1.535989362E1,-6.903456688E-2,-2.275750950E-2,-5.974357510E-1,6.018414677E-1
1.536984362E1,-7.446838439E-2,-7.127185777E-2,-8.078875673E-1,8.144369462E-1
1.537979363E1,-6.356332719E-2,-1.373854481E-1,-7.539312154E-1,7.689781112E-1
1.538974263E1,-1.249228388E-1,-1.050352889E-1,-7.320193595E-1,7.499936468E-1
1.539969262E1,-2.060167032E-1,-4.282822341E-2,-6.555149746E-1,6.884598904E-1
1.540964262E1,-2.591743255E-1,2.946879745E-2,-3.872388732E-1,4.668979395E-1
1.541959162E1,-1.722870398E-1,6.644732013E-2,-2.611249566E-2,1.864937877E-1
1.542954162E1,1.574947536E-2,2.994709969E-2,1.472679734E-1,1.511050322E-1
1.543949163E1,2.065008527E-1,-6.292905048E-2,1.177868968E-1,2.459195410E-1
1.544944162E1,3.093288177E-1,-7.070760146E-2,-1.098112947E-1,3.357713550E-1
1.545939062E1,3.122196811E-1,-9.131596684E-3,-2.797144246E-1,4.192906804E-1
1.546934062E1,2.556852919E-1,4.776210397E-2,-3.641271687E-1,4.474871864E-1
1.547929062E1,1.914653224E-1,5.156045526E-2,-2.092122066E-1,2.882484998E-1
1.548923962E1,6.855217159E-2,8.015333980E-2,6.135191023E-2,1.220164538E-1
1.549918962E1,-4.204148054E-2,1.108320723E-1,3.500839108E-1,3.696078719E-1
1.550913963E1,-1.850409865E-2,3.928495690E-2,6.383609980E-1,6.398362863E-1
1.551908962E1,5.375403821E-2,-1.846726120E-2,7.387407339E-1,7.409240232E-1
1.552903862E1,1.176360387E-1,1.755187958E-2,4.813691050E-1,4.958452594E-1
1.553898862E1,1.134500170E-1,3.419393241E-2,4.695781946E-2,1.274565345E-1
1.554893862E1,7.674412072E-2,3.120074272E-3,-2.084070450E-1,2.221100883E-1
1.555888762E1,-2.106225550E-2,4.153248042E-2,-2.758096540E-1,2.797133010E-1
1.556883763E1,-1.581747848E-1,1.872614667E-2,-2.079819524E-1,2.619664552E-1
1.557878762E1,-3.077167404E-1,-3.128903568E-2,-9.134403348E-2,3.225094239E-1
1.558873762E1,-4.010295314E-1,-1.389944556E-1,-9.564349115E-2,4.350767991E-1
1.559868662E1,-4.519505936E-1,-2.130688839E-1,-2.589901382E-1,5.627908848E-1
1.560863662E1,-4.401655304E-1,-2.587929408E-1,-4.601209080E-1,6.873359662E-1
1.561858663E1,-3.384093601E-1,-2.184405747E-1,-5.594539922E-1,6.893663388E-1
1.562853563E1,-2.038777918E-1,-1.667140585E-1,-6.867946547E-1,7.355587190E-1
1.563848562E1,-4.400731444E-2,-7.899690673E-2,-6.643208814E-1,6.704471556E-1
1.564843562E1,9.619663775E-2,-8.198059469E-2,-4.938499868E-1,5.097670257E-1
1.565838562E1,1.434795624E-1,-1.251649135E-1,-1.943415678E-1,2.720685306E-1
1.566833462E1,1.476860493E-1,-1.738947317E-1,2.973192215E-2,2.300750618E-1
1.567828462E1,1.183032060E-1,-1.979324891E-1,2.995645523E-2,2.325302303E-1
1.568823463E1,9.867527246E-2,-1.592313766E-1,-1.331411004E-2,1.877996439E-1
1.569818363E1,1.047616392E-1,-1.014696568E-1,-7.572202742E-2,1.643317308E-1
1.570813362E1,9.195740640E-2,4.204630449E-2,-1.447057235E-1,1.765327243E-1
1.571808362E1,4.898621857E-2,1.231116638E-1,-2.072908115E-1,2.460195356E-1
1.572803362E1,-1.821583092E-2,6.414088592E-2,-2.041391623E-1,2.147525723E-1
1.573798262E1,-6.302479863E-2,2.180719078E-3,-6.780782104E-2,9.260011540E-2
1.574793263E1,-2.886770368E-2,-2.021397069E-2,1.900532198E-1,1.932929778E-1
1.575788262E1,-5.872358680E-3,-8.363871887E-2,3.607404613E-1,3.703560454E-1
1.576783162E1,-4.357345104E-2,-1.455396827E-1,3.829721600E-1,4.120050002E-1
1.577778162E1,-1.298824471E-1,-1.086013596E-1,2.329682744E-1,2.879894481E-1
1.578773162E1,-2.389528996E-1,-6.849194527E-2,1.333866835E-1,2.821021838E-1
1.579768163E1,-3.622823721E-1,-4.407923520E-3,5.710273862E-2,3.667815013E-1
1.580763063E1,-4.316461372E-1,-2.157914937E-2,-7.507357121E-2,4.386571424E-1
1.581757712E1,-3.510329139E-1,-1.116648620E-1,-2.256662714E-1,4.319935348E-1
1.582752712E1,-2.819503999E-1,-1.809787796E-1,-4.187132657E-1,5.362556718E-1
1.583747612E1,-2.650466841E-1,-1.968978243E-1,-5.926316786E-1,6.784031283E-1
1.584742612E1,-2.334945238E-1,-2.068752207E-1,-6.971763861E-1,7.637879044E-1
1.585737613E1,-1.789218754E-1,-2.375352421E-1,-6.941054285E-1,7.551280518E-1
1.586732613E1,-1.262203360E-1,-2.543370701E-1,-5.747239959E-1,6.410355606E-1
1.587727513E1,-7.416900694E-2,-2.390882626E-1,-3.299262196E-1,4.141443580E-1
1.588722512E1,-3.648253262E-2,-1.618431817E-1,-1.767092890E-1,2.423847426E-1
1.589717512E1,1.726916671E-2,-1.278499550E-1,-1.665287018E-3,1.290217357E-1
