"Time (s)","Linear Acceleration x (m/s^2)","Linear Acceleration y (m/s^2)","Linear Acceleration z (m/s^2)","Absolute acceleration (m/s^2)"
8.058958338E-3,1.835897807E-3,-9.771794850E-3,-2.138092875E-2,2.357970758E-2
1.800895834E-2,2.614614456E-3,-1.205252872E-2,-3.799579203E-2,3.994721354E-2
2.795795834E-2,1.018814744E-2,-1.508482624E-2,2.487405539E-2,3.082318871E-2
3.790795835E-2,1.865730941E-2,-5.935797543E-3,-4.607956767E-2,5.006651020E-2
4.785795833E-2,1.194206089E-2,9.241512918E-4,-4.245078564E-4,1.198528601E-2
5.780795834E-2,5.462208479E-3,9.766790456E-3,-2.820112109E-3,1.154031844E-2
6.775795834E-2,5.396326804E-3,2.296820569E-2,-3.335602641E-2,4.085686373E-2
7.770795835E-2,1.536264550E-5,2.470775235E-2,1.671134233E-3,2.476420707E-2
8.765795833E-2,9.954208564E-3,3.726690006E-2,-3.021256328E-2,4.899701101E-2
9.760795833E-2,1.459528524E-2,5.054075110E-2,-1.733933330E-2,5.538991201E-2
1.075579583E-1,1.421390060E-2,6.236613720E-2,7.735866308E-4,6.397005921E-2
1.175079583E-1,1.705507182E-2,6.852602357E-2,-3.545225322E-2,7.901616062E-2
1.274579584E-1,1.344168898E-2,6.555976305E-2,-6.113263965E-3,6.720218396E-2
1.374069584E-1,1.761148464E-2,5.381002074E-2,-2.422442973E-2,6.158332338E-2
1.473569583E-1,1.181540472E-2,2.782424063E-2,-1.898532450E-2,3.569642422E-2
1.573069583E-1,4.753987323E-3,-2.421246349E-3,3.245204687E-4,5.344917482E-3
1.672569583E-1,-5.141630312E-3,-1.950200366E-2,-2.317660868E-2,3.072327618E-2
1.772069584E-1,-6.800394030E-3,-3.311917306E-2,-2.048104227E-2,3.952971130E-2
1.871569583E-1,-1.008489840E-2,-5.059725896E-2,-2.068744898E-3,5.163397617E-2
1.971069583E-1,-8.984036716E-3,-5.043143101E-2,-1.583952248E-2,5.361839817E-2
2.070569583E-1,-1.172697471E-2,-3.256372869E-2,-2.332454324E-2,4.173670662E-2
2.170069584E-1,-1.116677491E-2,-2.662244596E-2,-1.973259866E-2,3.496894251E-2
2.269569583E-1,-2.478456558E-3,-4.827204285E-3,-1.913267434E-2,1.988727924E-2
2.369069583E-1,8.012923831E-4,5.809080843E-3,-8.055124283E-3,9.963559451E-3
2.468569583E-1,-8.554143026E-3,1.794081650E-2,-1.000049293E-2,2.224985659E-2
2.568059583E-1,-1.754621509E-5,3.784090020E-2,-1.329364479E-2,4.010804193E-2
2.667559583E-1,9.307808010E-3,4.406937716E-2,-2.032901466E-2,4.941673937E-2
2.767059583E-1,1.718949383E-2,3.959331987E-2,-1.404150367E-2,4.539023575E-2
2.866559583E-1,1.629248526E-2,5.642946828E-2,4.070831537E-3,5.887530583E-2
2.966059583E-1,2.369455322E-2,5.546144346E-2,-1.808309913E-2,6.296349765E-2
3.065559583E-1,3.249966513E-2,4.811506110E-2,-2.107745826E-2,6.177011077E-2
3.165059584E-1,2.962308628E-2,5.749943566E-2,-1.269488990E-2,6.591564739E-2
3.264559583E-1,1.875078263E-2,5.705363114E-2,-2.197559059E-2,6.395025612E-2
3.364059583E-1,2.029482215E-2,2.915966931E-2,-1.613773048E-2,3.902041089E-2
3.463559583E-1,1.037793070E-2,1.462414673E-2,-2.482026100E-2,3.062045835E-2
3.563059584E-1,-3.464324526E-3,7.853911542E-3,-5.958312750E-3,1.044925652E-2
3.662559583E-1,-8.182557039E-3,-1.100148828E-2,1.377019286E-3,1.377981010E-2
3.762049583E-1,-1.234050752E-2,-1.656238794E-2,-1.014901221E-2,2.301311081E-2
3.861549583E-1,-8.428638023E-3,-1.650522570E-2,-1.284399390E-2,2.254844992E-2
3.961049583E-1,-1.526747293E-2,-2.228642263E-2,-1.449056983E-2,3.065545591E-2
4.060549584E-1,-9.132688469E-3,-2.700420518E-2,-8.353332281E-3,2.970540787E-2
4.160049583E-1,-6.036711121E-3,-2.027051966E-2,-9.101191163E-3,2.302536708E-2
4.259549583E-1,-3.193333489E-3,-1.696013908E-2,-1.913092017E-2,2.576501121E-2
4.359049583E-1,-3.987129559E-3,4.699848045E-4,-7.455199957E-3,8.467472718E-3
4.458549584E-1,2.362023876E-3,6.232760724E-3,-1.359243751E-2,1.513871925E-2
4.558049583E-1,1.658690628E-5,2.056280279E-2,-1.209555030E-2,2.385647649E-2
4.657549583E-1,-3.670457150E-3,4.495443547E-2,-7.304341793E-3,4.569165059E-2
4.757049583E-1,1.525608456E-2,8.148258551E-2,-3.335076392E-2,8.935565629E-2
4.856549583E-1,2.422928109E-2,9.575211232E-2,-1.329247534E-2,9.966049857E-2
4.956039583E-1,3.138382453E-2,8.898027828E-2,-2.841103613E-2,9.853741086E-2
5.055539583E-1,4.181220573E-2,6.555617706E-2,-7.455199957E-3,7.811179748E-2
5.155039583E-1,2.620442942E-2,5.475539674E-2,-9.251464605E-3,6.140370665E-2
5.254539583E-1,1.356459014E-2,2.413059790E-2,-2.826193213E-2,3.956034212E-2
5.354039583E-1,1.306276656E-2,-6.975109291E-3,-5.209284425E-3,1.569791910E-2
5.453539584E-1,-6.546099535E-3,-4.326983894E-2,-1.239317358E-2,4.548319615E-2
5.553039583E-1,-1.585663472E-2,-6.264088324E-2,-8.052785397E-3,6.511651458E-2
5.652539583E-1,-2.095506416E-2,-6.576923041E-2,4.794716835E-4,6.902851785E-2
5.752039583E-1,-2.206790807E-2,-6.728180917E-2,-2.002788305E-2,7.358634732E-2
5.851539584E-1,-2.113727802E-2,-5.565239159E-2,-1.778255224E-2,6.213044645E-2
5.951039583E-1,-1.313658309E-2,-2.288509529E-2,-2.152418554E-2,3.405272331E-2
6.050539583E-1,5.499626091E-3,-9.605639137E-4,-2.361982763E-2,2.427065774E-2
6.150039583E-1,8.599445242E-3,2.095391984E-2,-1.942795873E-2,2.984062324E-2
6.249529583E-1,1.088953923E-2,3.959227833E-2,-2.481675267E-2,4.797918071E-2
6.349029584E-1,1.789745917E-2,6.063458478E-2,-1.179383397E-2,6.431147981E-2
6.448529583E-1,2.641478301E-2,7.554939752E-2,-1.523667455E-2,8.147151942E-2
6.548029583E-1,1.715553886E-2,7.118069145E-2,-2.062663794E-2,7.606879480E-2
6.647529583E-1,1.684348484E-2,6.783188598E-2,-1.448940039E-2,7.137794100E-2
6.747029583E-1,2.076938309E-2,5.508943263E-2,-7.303172350E-3,5.932578856E-2
6.846529583E-1,1.076249933E-2,4.341016298E-2,-1.119507909E-2,4.610426702E-2
6.946029583E-1,1.060487576E-2,2.891440146E-2,-1.149445653E-2,3.287291488E-2
7.045529583E-1,8.478325652E-4,1.009544509E-2,-8.801229000E-3,1.342007688E-2
7.145029583E-1,-6.671924307E-3,-2.052644955E-2,-1.463908911E-2,2.607973610E-2
7.244529584E-1,-1.336183794E-2,-3.225684580E-2,-9.999323487E-3,3.631844276E-2
7.344029583E-1,-1.200305009E-2,-4.132222277E-2,-1.449115455E-2,4.540476700E-2
7.443529583E-1,-2.036266813E-2,-4.518165005E-2,-1.703527808E-2,5.240439346E-2
7.543019583E-1,-7.192495521E-3,-4.021254458E-2,-5.658935308E-3,4.124080845E-2
7.642519583E-1,-5.369429612E-3,-2.770328093E-2,-9.101775885E-3,2.965037728E-2
7.742019584E-1,-1.355850538E-3,-5.579928233E-3,-1.104772925E-2,1.245095384E-2
7.841519583E-1,6.838108571E-3,1.986645422E-2,-8.653879166E-3,2.272279377E-2
7.941019583E-1,2.138923363E-2,3.398702777E-2,-1.494139016E-2,4.284696619E-2
8.040519583E-1,2.283214373E-2,5.746842257E-2,-6.708510518E-3,6.220072743E-2
8.140004583E-1,2.385009372E-2,5.742819099E-2,-1.838364601E-2,6.484429452E-2
8.239504583E-1,1.982995937E-2,6.587131914E-2,-1.075069070E-2,6.962639819E-2
8.339004584E-1,1.335084700E-2,7.380203934E-2,-2.631831765E-2,7.948358303E-2
8.438504583E-1,3.972369907E-3,6.121468796E-2,-2.422267556E-2,6.595267816E-2
8.538004583E-1,1.468930207E-3,4.571471969E-2,-1.179792702E-2,4.723541504E-2
8.637504583E-1,-7.304771198E-3,2.995461427E-2,-1.045131326E-2,3.255562236E-2
8.737004584E-1,-1.346122690E-2,2.169120577E-2,-8.355671167E-3,2.686131564E-2
8.836504583E-1,-1.328622156E-2,9.330351767E-3,-2.257551491E-2,2.780706783E-2
8.936004583E-1,-1.239388164E-2,-1.375070519E-2,-1.718613625E-2,2.525972039E-2
9.035494583E-1,-8.936825017E-3,-2.121772292E-2,-1.434205055E-2,2.712476767E-2
9.134994583E-1,5.581939355E-3,-3.044313772E-2,-1.299485207E-2,3.356797375E-2
9.234494584E-1,8.667752598E-3,-4.075200047E-2,-8.504775167E-3,4.252277834E-2
9.333994583E-1,8.256611112E-3,-2.914644227E-2,-1.075010598E-2,3.214422970E-2
9.433494583E-1,1.528491408E-2,-2.332366844E-2,-2.033018410E-2,3.450997672E-2
9.532994583E-1,1.927811926E-2,-5.023813485E-3,-4.612868428E-3,2.044903761E-2
9.632494583E-1,1.119776058E-2,7.233223891E-3,-1.479228616E-2,1.991283756E-2
9.731994583E-1,1.749853288E-2,2.685380383E-2,-1.419353127E-2,3.505398356E-2
9.831494583E-1,1.821833883E-2,4.444422022E-2,-3.565632105E-3,4.816544730E-2
9.930994583E-1,9.776846068E-3,5.660327220E-2,-1.673765481E-2,5.983031197E-2
1.003049458E0,3.805276584E-3,6.752467419E-2,-1.164823830E-2,6.862756887E-2
1.012999458E0,-3.292832086E-3,6.022801143E-2,-1.374504983E-2,6.186422633E-2
1.022949458E0,-1.220817772E-2,5.499802421E-2,-1.763754129E-2,5.903308507E-2
1.032899458E0,-1.238688325E-2,5.051738051E-2,-2.242874980E-2,5.664352945E-2
1.042848458E0,-1.346417792E-2,3.037728117E-2,-2.168089092E-2,3.967523572E-2
1.052798458E0,-1.260195572E-2,1.106472501E-2,-1.622602344E-3,1.684844995E-2
1.062748458E0,-4.850635403E-3,-8.805130189E-3,-4.466688037E-3,1.100046742E-2
1.072698458E0,-2.519674860E-3,-2.250206383E-2,-1.808894634E-2,2.898105619E-2
1.082648458E0,7.133877184E-3,-2.876885604E-2,-1.973493755E-2,3.560908650E-2
1.092598458E0,1.711064778E-2,-3.390680215E-2,-1.958583355E-2,4.273231067E-2
1.102548458E0,2.137552922E-2,-3.040584573E-2,-2.242933452E-2,4.341087135E-2
1.112498458E0,1.966539680E-2,-2.968630930E-2,-1.015544415E-2,3.702887842E-2
1.122448458E0,1.531775898E-2,-1.804411693E-2,-1.509517193E-2,2.807290707E-2
1.132398458E0,1.463106289E-2,2.452284558E-3,-7.161669731E-3,1.647334860E-2
1.142348458E0,1.560445071E-2,1.370536300E-2,-8.958519101E-3,2.261837574E-2
1.152298458E0,9.045496434E-3,3.550951939E-2,-1.329949200E-2,3.898234806E-2
1.162248458E0,1.133181714E-2,5.416969302E-2,-1.374855816E-2,5.702445592E-2
1.172198458E0,-3.483478725E-3,5.997396362E-2,-1.419762433E-2,6.172992364E-2
1.182148458E0,1.337066358E-3,7.731174831E-2,-5.216301084E-3,7.749905787E-2
1.192098458E0,-1.009989103E-2,5.720063837E-2,-6.114433408E-3,5.840639626E-2
1.202047458E0,-9.340652917E-3,4.796458666E-2,-4.767234921E-3,4.909761602E-2
1.211997458E0,-2.021743334E-3,3.308167323E-2,-1.404793561E-2,3.599762554E-2
1.221947458E0,3.276313702E-3,1.041581426E-2,-1.165408552E-2,1.597000712E-2
1.231897458E0,3.501522867E-3,-5.297463178E-4,-1.374972761E-2,1.419846128E-2
1.241847458E0,7.049448872E-3,-2.094777341E-2,-1.060626447E-2,2.451523580E-2
1.251797458E0,1.492358356E-2,-2.731355487E-2,-1.330183089E-2,3.384792949E-2
1.261747458E0,1.422285415E-2,-3.194180878E-2,-1.734401107E-2,3.903054507E-2
1.271697458E0,2.045562515E-2,-2.711187618E-2,-1.779249251E-2,3.834135130E-2
1.281647458E0,1.719853417E-2,-1.956144426E-2,-1.375031233E-2,2.945353575E-2
1.291597458E0,1.413877301E-2,-1.177130734E-2,-6.565838456E-3,1.953404243E-2
1.301547458E0,6.951233922E-3,3.372627165E-3,-7.279783487E-4,7.760426503E-3
1.311497458E0,1.667781221E-3,2.001155653E-2,-1.060743392E-2,2.271038404E-2
1.321447458E0,3.816678654E-3,2.612968099E-2,-2.437938094E-2,3.593997050E-2
1.331397458E0,-5.066913860E-3,4.654100435E-2,-1.180611312E-2,4.828170470E-2
1.341347458E0,-1.120932254E-2,5.312792019E-2,-2.602654159E-2,6.021300260E-2
1.351297458E0,-1.393298300E-2,6.243543127E-2,-1.749428451E-2,6.632014086E-2
1.361247458E0,-4.110962623E-3,4.848901338E-2,-9.260820150E-3,4.953632225E-2
1.371196458E0,-4.412729200E-3,4.922382566E-2,-1.539864242E-2,5.176461514E-2
1.381146458E0,-1.473032394E-3,3.560314336E-2,-6.417903900E-3,3.620694867E-2
1.391096458E0,5.760608339E-3,1.223791630E-2,-1.330300033E-2,1.897158458E-2
1.401046458E0,6.267086850E-3,-2.444495884E-3,-9.112300873E-3,1.132633943E-2
1.410996458E0,1.364091458E-2,-1.129502422E-2,-8.794212341E-4,1.773204738E-2
1.420946458E0,1.185186759E-2,-2.584805076E-2,-1.629677474E-2,3.277458407E-2
1.430896458E0,1.421933668E-2,-3.594906555E-2,-1.435023665E-2,4.123656317E-2
1.440846458E0,1.120766431E-2,-2.466057720E-2,-1.015895247E-2,2.893026309E-2
1.450796458E0,7.188987192E-3,-1.585467271E-2,-1.539805770E-2,2.324117821E-2
1.460746458E0,5.964488871E-3,3.633507772E-3,-1.120618880E-2,1.320439978E-2
1.470696458E0,1.050622683E-2,6.668597561E-3,-1.195463240E-2,1.725584630E-2
1.480646458E0,-2.522849715E-3,2.231311197E-2,-6.713188291E-3,2.343729152E-2
1.490596458E0,-8.242280865E-3,3.364157382E-2,-2.617213726E-2,4.341280285E-2
1.500546458E0,2.092517484E-3,3.451802348E-2,-2.632182598E-2,4.345930392E-2
1.510496458E0,-7.755975248E-3,4.043065486E-2,-1.195287824E-2,4.286798692E-2
1.520446458E0,-2.951478031E-3,4.686965898E-2,-1.255221784E-2,4.861105150E-2
1.530396458E0,-5.019565118E-3,3.734902831E-2,-2.672762275E-3,3.777948660E-2
1.540346458E0,4.844929799E-3,3.151087584E-2,-1.774045229E-3,3.193048508E-2
1.550295458E0,2.697987529E-4,2.699032490E-2,-1.614357769E-2,3.145100206E-2
1.560245458E0,1.615046188E-2,1.635063194E-2,-1.359886944E-2,2.670411642E-2
1.570195458E0,1.041212321E-2,1.643948449E-2,-9.258481264E-3,2.154967367E-2
1.580145458E0,1.260782578E-2,3.226039067E-3,-1.225225568E-2,1.787406971E-2
1.590095458E0,1.613862583E-2,-1.447171028E-2,-2.821866274E-3,2.185974774E-2
1.600045458E0,2.230726476E-3,-2.147642566E-2,-7.164008617E-3,2.274941800E-2
1.609995458E0,1.861155038E-3,-2.716837490E-2,-1.925488114E-3,2.730003658E-2
1.619945458E0,4.097203393E-3,-1.578273140E-2,-1.390058577E-2,2.142680496E-2
1.629895458E0,6.981803896E-4,-1.423066452E-2,-1.390000105E-2,1.990500685E-2
1.639845458E0,-6.829972719E-3,-7.666212494E-3,-1.524836898E-2,1.838292952E-2
1.649795458E0,-3.429556433E-3,1.562398292E-2,-8.063310385E-3,1.791333788E-2
1.659745458E0,-2.094267081E-3,1.969280790E-2,-1.285393417E-2,2.360966457E-2
1.669695458E0,-2.502717935E-3,2.548899518E-2,-2.108622909E-2,3.317501363E-2
1.679645458E0,2.968508047E-3,3.484682429E-2,-1.255455673E-2,3.715817673E-2
1.689595458E0,6.685391176E-3,4.919944094E-2,-9.111716151E-3,5.048071727E-2
1.699545458E0,4.912542799E-3,3.720332757E-2,-9.411678314E-3,3.868850408E-2
1.709495458E0,2.396983830E-3,4.459290395E-2,-8.365026712E-3,4.543397723E-2
1.719445458E0,8.956235033E-3,3.519683953E-2,-2.004074693E-2,4.148087748E-2
1.729394458E0,1.440510455E-2,2.593619754E-2,-1.495133042E-2,3.322251739E-2
1.739344458E0,2.545356927E-3,1.464523554E-2,-1.525070786E-2,2.129661607E-2
1.749294458E0,7.183647039E-3,1.367405984E-2,-8.814092875E-3,1.778406395E-2
1.759244458E0,3.355598291E-3,-2.798785761E-3,-4.921601415E-3,6.581443771E-3
1.769194458E0,7.407403537E-3,-2.109092056E-2,-7.466309667E-3,2.356782420E-2
1.779144458E0,8.509146874E-3,-1.874628416E-2,-9.411678314E-3,2.263644051E-2
1.789094458E0,5.491248127E-3,-1.716154825E-2,-2.093712509E-2,2.762310177E-2
1.799044458E0,-1.113561108E-3,-2.364027004E-3,-1.270424545E-2,1.297021567E-2
1.808994958E0,-4.395872774E-3,-4.670970566E-3,-2.108681381E-2,2.204076632E-2
1.818944958E0,2.734532626E-3,4.720814653E-3,-1.509868026E-2,1.605409310E-2
1.828894958E0,-1.462004911E-3,1.201034312E-2,-1.478176117E-3,1.218896242E-2
1.838844958E0,1.051091831E-3,3.309515837E-2,-1.554891586E-2,3.658091150E-2
1.848794958E0,3.066366683E-3,2.028737609E-2,-9.261989594E-3,2.251143453E-2
1.858744958E0,6.476325807E-3,3.259927337E-2,-4.621054530E-3,3.355606599E-2
1.868694958E0,6.925250357E-4,4.141861046E-2,-2.138619125E-2,4.661920269E-2
1.878644958E0,7.367679016E-3,3.467363707E-2,-1.719549179E-2,3.939833423E-2
1.888594958E0,4.077204089E-3,2.834283841E-2,-1.165700912E-2,3.091643486E-2
1.898544958E0,-3.869120870E-4,1.651458581E-2,-1.135704696E-2,2.004653988E-2
1.908494958E0,5.646729246E-3,1.460907987E-2,-3.873195648E-3,1.613420002E-2
1.918444958E0,2.380264448E-3,5.440549798E-3,-1.327902675E-3,6.085110226E-3
1.928393958E0,-2.076108735E-3,-1.236329796E-3,-1.255338728E-2,1.278382850E-2
1.938343958E0,1.763095404E-3,-5.090627060E-3,-4.470196366E-3,7.000403190E-3
1.948293958E0,8.973283321E-4,-8.785749867E-4,-7.913036942E-3,8.012068759E-3
1.958243958E0,1.030379897E-2,-8.170944834E-3,-4.470196366E-3,1.388939409E-2
1.968193958E0,-1.685094461E-3,-4.700610924E-3,-1.419937849E-2,1.505183165E-2
1.978143958E0,-5.686787241E-3,1.618094734E-3,-1.210373640E-2,1.347064269E-2
1.988093958E0,-5.453990400E-3,-1.971391041E-4,-1.479871809E-2,1.577298109E-2
1.998043958E0,6.381902411E-3,1.175991669E-2,-7.463970780E-3,1.532106977E-2
2.007993958E0,1.817511055E-3,2.143420466E-2,-9.708716869E-3,2.360058599E-2
2.017943958E0,4.990086928E-3,2.717686021E-2,-1.569568098E-2,3.177793417E-2
2.027893958E0,1.416438656E-2,3.711480393E-2,-1.494665265E-2,4.244456317E-2
2.037843958E0,8.612213186E-3,3.420247940E-2,-1.913735211E-2,4.012752246E-2
2.047793958E0,5.929940050E-3,3.897570772E-2,-1.838890851E-2,4.350197624E-2
2.057743958E0,4.216683023E-3,2.763611561E-2,-1.958583355E-2,3.413414972E-2
2.067693958E0,4.225293961E-3,2.063148016E-2,-2.371630669E-3,2.119282225E-2
2.077643958E0,3.529484435E-3,1.115822678E-2,-1.584303081E-2,1.969682489E-2
2.087593958E0,9.030522080E-4,3.960947280E-3,-9.856066704E-3,1.066051863E-2
2.097543958E0,-3.785204189E-4,3.403931467E-3,-1.434555888E-2,1.474873170E-2
2.107493958E0,-9.946844727E-4,-1.330963555E-2,-8.807076216E-3,1.599063436E-2
2.117443958E0,-1.432809946E-3,-7.734848756E-3,-8.208321333E-3,1.136914107E-2
2.127393958E0,6.771427472E-3,-4.237271617E-3,-1.329656839E-2,1.551146130E-2
2.137342958E0,5.312533462E-3,1.727599836E-3,4.747939110E-4,5.606517835E-3
2.147292958E0,6.949036648E-3,-3.241359458E-3,-1.284750223E-2,1.496174572E-2
2.157242958E0,9.898299132E-3,8.035563519E-3,-2.422384501E-2,2.737409859E-2
2.167192958E0,2.425781367E-3,4.341244705E-3,-7.907774448E-3,9.341505101E-3
2.177142958E0,1.047131713E-2,1.947840238E-2,-7.458708286E-3,2.333857260E-2
2.187092958E0,8.534655352E-3,2.432910174E-2,-7.607812285E-3,2.688167296E-2
2.197042958E0,5.909127616E-3,2.681792340E-2,-1.778723001E-2,3.271856287E-2
2.206992958E0,1.354071249E-2,2.902895664E-2,-1.015368998E-2,3.360250940E-2
2.216942958E0,5.530757946E-3,3.912598116E-2,-1.913501322E-2,4.390421866E-2
2.226892958E0,-2.163848947E-3,2.792658746E-2,-1.853684306E-2,3.358855579E-2
2.236842958E0,-4.403423904E-3,1.893464559E-2,-1.225050151E-2,2.297794014E-2
2.246792958E0,-7.842829241E-3,1.379973158E-2,-1.629209697E-2,2.274587844E-2
2.256742958E0,-9.989136541E-3,1.339166787E-2,-8.807660937E-3,1.888635773E-2
2.266692958E0,-6.491368683E-3,-1.500453780E-3,-1.509458721E-2,1.649956945E-2
2.276642958E0,5.612596124E-4,-7.179821224E-4,-1.075302958E-2,1.079157801E-2
2.286592958E0,5.641192663E-5,-9.400744478E-3,-1.719022930E-2,1.959288550E-2
2.296542958E0,6.987651112E-4,-1.435185492E-2,-1.988404155E-2,2.453240959E-2
2.306492958E0,5.842578993E-3,-3.739818603E-3,-1.674057841E-2,1.812095301E-2
2.316442958E0,6.097115600E-3,-5.610193284E-3,-1.868536234E-2,2.043995727E-2
2.326392958E0,9.158425354E-3,1.409406009E-2,-1.928294778E-2,2.558029241E-2
2.336342958E0,4.072750155E-3,1.398364478E-2,-1.194820046E-2,1.883850073E-2
2.346292958E0,6.390897073E-3,1.519331950E-2,-1.763695657E-2,2.414006545E-2
2.356242958E0,4.552039113E-3,1.843375962E-2,-2.122948587E-2,2.848184727E-2
2.366191958E0,-9.989876579E-4,3.298146428E-2,-9.104699492E-3,3.422967303E-2
2.376141958E0,-4.791829772E-3,3.668646797E-2,-6.409717798E-3,3.754920834E-2
2.386091958E0,2.107861857E-3,3.425783609E-2,-8.655048609E-3,3.539706600E-2
2.396041958E0,-6.324997125E-4,3.394654494E-2,-1.374446511E-2,3.662892697E-2
2.405991958E0,1.442265990E-3,1.980870383E-2,-1.539104104E-2,2.512665960E-2
2.415941958E0,4.806233109E-3,2.010839419E-2,-1.149854958E-2,2.365721953E-2
2.425891958E0,2.194533125E-4,1.255797255E-2,-1.524018288E-2,1.974877233E-2
2.435841958E0,2.582162409E-3,9.957568429E-3,-1.673648536E-2,1.964511832E-2
2.445791958E0,4.244566932E-3,4.433888812E-3,-7.155237794E-3,9.427255503E-3
2.455741958E0,1.616005953E-3,-9.766744775E-3,-2.272228003E-2,2.478513240E-2
2.465691958E0,1.112621899E-2,-7.338381268E-4,-1.239317358E-2,1.667099333E-2
2.475641958E0,6.195038189E-3,-6.936743790E-3,-7.303757071E-3,1.182547166E-2
2.485591958E0,3.113349974E-3,-1.358257832E-2,-1.718262792E-2,2.212288598E-2
2.495541958E0,1.011567851E-2,-1.621727545E-3,-1.179324925E-2,1.562170541E-2
2.505491958E0,6.823070263E-3,4.724595929E-3,-1.074367404E-2,1.357581034E-2
2.515441958E0,9.954299927E-3,1.819878378E-2,-4.906398654E-3,2.131564134E-2
2.525391958E0,4.450809192E-3,1.928300260E-2,-1.463558078E-2,2.461390088E-2
2.535341958E0,4.646412260E-3,1.707979801E-2,-6.852352023E-3,1.898060523E-2
2.545291958E0,-3.056357894E-3,2.933283598E-2,-2.227087498E-2,3.695603418E-2
2.555241958E0,-1.503739413E-3,2.868805711E-2,-1.448647678E-2,3.217334087E-2
2.565191958E0,2.066022288E-3,2.846277029E-2,-1.299017429E-2,3.135510116E-2
2.575141958E0,4.951668894E-3,2.907722129E-2,-2.316842258E-2,3.750706104E-2
2.585091958E0,2.620457103E-3,2.097648873E-2,-2.301814914E-2,3.125244093E-2
2.595041958E0,9.931861237E-4,3.069101170E-2,-1.598277926E-2,3.461753675E-2
2.604991958E0,7.599014053E-3,1.854973206E-3,-1.268962741E-2,1.490679657E-2
2.614941958E0,4.342183457E-3,1.284852549E-3,7.966831326E-3,9.163831329E-3
2.624890958E0,2.628830499E-3,-2.586598070E-3,-1.194118381E-2,1.249772419E-2
2.634840958E0,9.776448640E-3,-4.446091448E-3,-1.164180636E-2,1.583913926E-2
2.644790958E0,1.447334795E-2,-5.172513204E-3,-1.628274143E-2,2.239107774E-2
2.654740958E0,5.720395027E-3,-2.258755424E-3,-1.433737278E-2,1.560080618E-2
2.664690958E0,1.067343893E-2,7.210859433E-3,-2.511963844E-3,1.312359534E-2
2.674640958E0,1.928290667E-2,-3.043286169E-3,-1.523608983E-2,2.476349154E-2
2.684590958E0,8.375314157E-4,1.515244952E-2,-1.388947606E-2,2.057220772E-2
2.694540958E0,-4.891054281E-3,1.981934759E-2,-1.269196630E-2,2.403778191E-2
2.704490958E0,-2.185712052E-3,1.908818867E-2,-1.538636327E-2,2.461455786E-2
2.714440958E0,2.074788543E-3,2.708353317E-2,-2.317076147E-2,3.570303493E-2
2.724390958E0,2.391396998E-3,3.880156576E-2,-1.089628637E-2,4.037337416E-2
2.734340958E0,-4.096079632E-3,1.902113756E-2,-1.329072118E-2,2.356320886E-2
2.744290958E0,1.926383469E-4,1.717324382E-2,-1.299134374E-2,2.153444740E-2
2.754240958E0,4.714180576E-3,2.164567058E-2,-1.912916601E-2,2.926915690E-2
2.764190958E0,1.169041134E-2,8.792579232E-3,-1.463908911E-2,2.069488093E-2
2.774140958E0,-2.598767588E-3,1.522602394E-3,-9.999323487E-3,1.044310209E-2
2.784090958E0,-2.899944875E-3,6.735034265E-3,-1.718379736E-2,1.868296707E-2
2.794040958E0,8.128063730E-3,-5.576992063E-3,-2.062722266E-2,2.286155233E-2
2.803990958E0,9.531171648E-3,-3.177950287E-3,-1.029928565E-2,1.438811613E-2
2.813940333E0,5.637478768E-3,-2.432481683E-3,-2.077808082E-2,2.166625894E-2
2.823890333E0,8.961588889E-4,-1.654305216E-4,-5.209869146E-3,5.288970083E-3
2.833840333E0,1.771688070E-3,-1.139944384E-4,-7.903681397E-3,8.100620531E-3
2.843790333E0,6.917895656E-4,5.561881807E-3,-1.164648414E-2,1.292492533E-2
2.853740333E0,3.198244236E-4,1.774383500E-2,-8.652709723E-3,1.974374214E-2
2.863690333E0,2.644800707E-3,1.997330752E-2,-1.957940161E-2,2.809414443E-2
2.873640333E0,-3.064142000E-3,2.601386044E-2,-7.753992677E-3,2.731728946E-2
2.883590333E0,2.891882113E-3,3.319246426E-2,-2.302224219E-2,4.049847282E-2
2.893540333E0,4.803807428E-4,2.998963361E-2,-2.197442114E-2,3.718177073E-2
2.903489333E0,5.343267890E-3,2.218229194E-2,-1.463967383E-2,2.710949349E-2
2.913439333E0,-9.682349581E-4,2.073661356E-2,-1.598570287E-2,2.620090298E-2
2.923389333E0,8.762057223E-3,1.261981371E-2,-1.269255102E-2,1.992822612E-2
2.933339333E0,9.076308520E-3,6.815337549E-3,-1.837955296E-2,2.160176311E-2
2.943289333E0,6.958830734E-3,6.458498652E-3,-1.508640110E-2,1.782517962E-2
2.953239333E0,7.856547358E-3,6.777264409E-3,-1.104422092E-2,1.515359578E-2
2.963189333E0,7.683451502E-3,1.089432207E-4,1.545243680E-2,1.725760988E-2
2.973139333E0,3.122065980E-3,2.221089990E-3,-2.855604708E-2,2.881194825E-2
2.983089333E0,7.174912761E-3,3.241495360E-3,-1.822869480E-2,1.985628312E-2
2.993039333E0,4.191704448E-3,1.846777968E-3,1.904438138E-2,1.958748165E-2
3.002989333E0,1.077897660E-4,5.496676216E-3,-5.310558200E-2,5.338939883E-2
3.012939333E0,-4.026625673E-3,1.541366588E-2,6.320840120E-3,1.713907320E-2
3.022889333E0,4.622511766E-3,1.029519032E-2,-8.797135949E-3,1.430902371E-2
3.032839333E0,4.413985438E-3,1.710669977E-2,-3.110017061E-2,3.576790540E-2
3.042789333E0,6.828095214E-3,1.217910952E-2,1.889586210E-2,2.349483342E-2
3.052739333E0,-3.733552261E-3,2.365668564E-2,-4.172865450E-2,4.811297948E-2
3.062689333E0,2.221151660E-3,2.636665311E-2,6.619632840E-3,2.727551008E-2
3.072639333E0,1.293239649E-3,2.046498983E-2,1.320535183E-2,2.438994864E-2
3.082589333E0,2.693232098E-3,2.402919211E-2,-4.547321141E-2,5.150212159E-2
3.092539333E0,1.378550983E-2,2.028461237E-2,1.889293849E-2,3.095882596E-2
3.102489333E0,1.199500560E-2,1.070342190E-2,-2.272052586E-2,2.783281687E-2
3.112439333E0,8.314868566E-3,1.445132496E-3,-9.848465323E-3,1.296987727E-2
3.122389333E0,1.005376198E-2,2.990577860E-3,1.859297633E-2,2.134761005E-2
3.132339333E0,4.879273055E-3,5.577376928E-3,-4.682099462E-2,4.740379706E-2
3.142289333E0,9.918220779E-3,6.571470969E-4,1.410289943E-2,1.725383198E-2
3.152239333E0,2.223358070E-4,-9.415193496E-3,-1.613363743E-2,1.868126223E-2
3.162189333E0,-6.381185213E-4,-4.083085565E-3,-2.915714085E-2,2.944855931E-2
3.172139333E0,7.577447877E-3,5.612376854E-3,2.188671291E-2,2.383159022E-2
3.182089333E0,2.766226362E-3,-1.667392929E-3,-2.541433811E-2,2.561875854E-2
3.192039333E0,-4.142829948E-3,9.513508945E-3,-1.059515476E-2,1.482994258E-2
3.201989333E0,3.870093883E-3,1.777579597E-2,-2.063482404E-3,1.830886421E-2
3.211939333E0,6.610460021E-4,1.997383514E-2,-3.664099216E-2,4.173671500E-2
3.221888333E0,7.638871050E-3,1.647419548E-2,6.917840838E-3,1.943213806E-2
3.231838333E0,4.131505536E-3,2.060058585E-2,-2.272111058E-2,3.094676625E-2
3.241788333E0,6.090044123E-3,2.424764500E-2,-1.568574071E-2,2.951405406E-2
3.251738333E0,-1.242985572E-3,2.317145125E-2,-1.913208961E-3,2.328350349E-2
3.261688333E0,9.712750535E-3,1.900213182E-2,-2.736029148E-2,3.469876203E-2
3.271638333E0,7.225614516E-3,1.773742932E-2,-1.463558078E-3,1.920853733E-2
3.281588333E0,-3.772938740E-3,7.906912212E-3,-1.613305271E-2,1.835836913E-2
3.291538333E0,1.267725233E-2,5.357054528E-4,-1.283931613E-2,1.805125330E-2
3.301488333E0,7.053021155E-3,2.009850189E-3,1.980451941E-3,7.596498871E-3
3.311438333E0,3.818652090E-3,-5.083480210E-4,-2.137098849E-2,2.171542471E-2
3.321388333E0,5.999759459E-3,6.710826564E-3,-1.761766076E-3,9.172574690E-3
3.331338333E0,-1.102656964E-4,-1.704530743E-3,-5.503984094E-3,5.762935405E-3
3.341288333E0,-2.347963150E-3,4.093990851E-3,-1.358659029E-2,1.438294573E-2
3.351238333E0,8.487662924E-3,1.125548471E-2,-7.299664021E-3,1.587486859E-2
3.361188333E0,7.808184489E-3,9.634167154E-3,-1.703001559E-2,2.106671196E-2
3.371138333E0,6.298442543E-3,1.415952949E-2,-1.867600679E-2,2.426841329E-2
3.381088333E0,4.814958251E-3,2.004116720E-2,-1.910870075E-3,2.069984613E-2
3.391038333E0,1.019417281E-2,2.320019397E-2,-1.837662935E-2,3.130288591E-2
3.400988333E0,1.226188531E-3,3.033474953E-2,-1.912448823E-2,3.588100636E-2
3.410938333E0,5.207530260E-3,1.285193218E-2,-3.035114229E-2,3.336888327E-2
3.420888333E0,8.999746540E-3,1.634902967E-2,-1.957413912E-2,2.704502045E-2
3.430838333E0,4.302815250E-3,8.785633380E-3,-9.095343947E-3,1.335765153E-2
3.440788333E0,6.955363518E-3,1.119105342E-2,-2.241764009E-2,2.600321798E-2
3.450738333E0,7.394009759E-3,8.964441691E-3,-5.802192092E-3,1.298838051E-2
3.460688333E0,6.433056411E-3,-6.636872990E-3,-1.029285371E-2,1.383384023E-2
3.470638333E0,7.373370915E-3,-1.230014803E-2,-1.508113861E-2,2.081107835E-2
3.480588333E0,9.799796389E-4,-1.014518182E-2,-1.908531189E-3,1.036954993E-2
3.490538333E0,7.192212297E-3,-9.112949548E-3,-1.208677948E-2,1.675899774E-2
3.500488333E0,5.555156367E-3,3.082889635E-3,-8.195457458E-3,1.036964289E-2
3.510438333E0,5.599316549E-3,-3.885906490E-3,-1.163771331E-2,1.348662249E-2
3.520388333E0,9.301554230E-3,7.242946029E-3,-1.118923187E-2,1.625355617E-2
3.530338333E0,6.752519952E-3,-3.120533370E-3,-1.074016571E-2,1.306466279E-2
3.540288333E0,9.068136122E-3,6.090637981E-3,-1.029051483E-2,1.500738682E-2
3.550238333E0,3.307902371E-3,8.404865437E-3,-7.147636414E-3,1.151836305E-2
3.560188333E0,5.979015548E-3,2.869287650E-2,-2.806663513E-3,2.944328699E-2
3.570138333E0,1.322549275E-2,2.674017370E-2,-5.499891043E-3,3.033478778E-2
3.580088333E0,5.672507244E-3,1.098064159E-2,-1.627747893E-2,2.043790959E-2
3.590038333E0,7.172350036E-3,1.761699153E-2,-2.645689666E-2,3.258478750E-2
3.599987333E0,8.379544253E-3,1.247627484E-2,2.144466341E-2,2.618678645E-2
3.609937333E0,4.895553896E-3,1.277398492E-2,-6.477662444E-2,6.620537903E-2
3.619887333E0,-1.767138205E-4,6.003770283E-3,8.870226145E-3,1.071248791E-2
3.629837333E0,-1.063526301E-3,3.999417848E-3,1.336205721E-2,1.398824521E-2
3.639787333E0,2.141282349E-3,1.532980059E-3,-5.429782927E-2,5.436165359E-2
3.649737333E0,5.576763656E-3,-6.832736442E-3,1.635466218E-2,1.858121512E-2
3.659687333E0,3.857563483E-3,-6.303478915E-3,-5.684370697E-2,5.732208705E-2
3.669637333E0,-1.146291811E-3,-3.638555564E-3,1.829886138E-2,1.869228182E-2
3.679587333E0,1.459929606E-2,6.617193455E-3,-1.253643036E-2,2.034917150E-2
3.689537333E0,1.141027033E-2,1.711433198E-2,-6.642495453E-2,6.953681912E-2
3.699487333E0,9.297118569E-3,1.549955257E-3,5.407563508E-2,5.489091987E-2
3.709437333E0,3.141603903E-3,1.960549710E-2,-4.472009003E-2,4.892986454E-2
3.719387333E0,1.174346112E-2,1.496247896E-2,-2.957521677E-3,1.924919713E-2
3.729337333E0,1.066022331E-2,1.503136647E-2,-7.127755880E-4,1.844153974E-2
3.739287333E0,1.156764266E-2,1.488834038E-2,-3.828522921E-2,4.267589262E-2
3.749237333E0,8.174357233E-3,1.785015382E-2,1.979457915E-2,2.787962466E-2
3.759187333E0,-3.323566513E-3,1.476691701E-2,-5.011005342E-2,5.234620699E-2
3.769137333E0,8.392216265E-4,1.529090290E-2,-9.394136667E-3,1.796568419E-2
3.779087333E0,6.501706378E-3,1.406745754E-2,1.755041778E-2,2.341330203E-2
3.789037333E0,-2.772996342E-3,1.261320247E-2,-4.037911713E-2,4.239405012E-2
3.798987333E0,8.894103798E-3,-4.513984246E-3,1.111380279E-2,1.493310914E-2
3.808938208E0,4.008974391E-3,2.047649240E-3,-9.842618108E-3,1.082320998E-2
3.818888208E0,1.675775461E-4,5.555428171E-3,-2.062020600E-2,2.135611762E-2
3.828838208E0,5.458458038E-3,-2.480589878E-3,9.018745422E-3,1.082985962E-2
3.838788208E0,1.244830186E-2,-6.985595450E-5,-3.005059540E-2,3.252696394E-2
3.848738208E0,1.173254327E-2,5.935887764E-3,2.881507874E-3,1.346069920E-2
3.858688208E0,1.947173062E-3,1.788747779E-3,3.331158757E-3,4.252966049E-3
3.868638208E0,5.263896505E-3,1.019266533E-2,-2.106751800E-2,2.398831689E-2
3.878588208E0,1.324991401E-2,1.706722763E-2,-1.028993011E-2,2.393184368E-2
3.888538208E0,1.288594767E-2,1.212446432E-2,-2.331284881E-2,2.926669100E-2
3.898488208E0,-9.975167178E-4,1.418471705E-2,-1.627747893E-2,2.161382793E-2
3.908438208E0,1.515305936E-3,1.342497188E-2,-5.200513601E-3,1.447657984E-2
3.918388208E0,6.743854196E-3,1.545861064E-2,-1.867249846E-2,2.516168538E-2
3.928338208E0,5.881737066E-3,1.385826883E-2,1.171431184E-2,1.907541737E-2
3.938288208E0,-1.946003619E-3,1.511145734E-2,-1.043961883E-2,1.846967012E-2
3.948238208E0,-1.638764413E-3,8.969336450E-3,-1.328370452E-2,1.611183884E-2
3.958188208E0,-4.046314345E-3,-1.574232623E-3,3.330574036E-3,5.472073787E-3
3.968138208E0,7.749607265E-3,-3.100862971E-3,-1.433327973E-2,1.658658107E-2
3.978088208E0,-3.054809296E-3,-4.246599753E-3,-8.607101440E-4,5.301536688E-3
3.988038208E0,7.505581942E-3,-2.937885539E-3,-6.549466252E-3,1.038558809E-2
3.997988208E0,3.191127079E-3,-3.907970593E-3,-2.885367036E-2,2.929146325E-2
4.007938208E0,-1.825085026E-3,-3.597136263E-3,6.355923414E-4,4.083417965E-3
4.017888208E0,2.676215786E-3,-3.062723593E-3,-2.481032073E-2,2.514148806E-2
4.027838208E0,-1.600661580E-3,3.859607724E-3,-7.895495296E-3,8.932946616E-3
4.037788208E0,3.650096962E-3,7.157839348E-3,-1.014082611E-2,1.293809206E-2
4.047738208E0,8.696582112E-3,1.775954254E-2,-2.017055511E-2,2.824682611E-2
4.057688208E0,1.355469556E-2,1.008133297E-2,-5.500475764E-3,1.776564887E-2
4.067638208E0,1.085559340E-2,1.326884894E-2,-1.103895843E-2,2.039031298E-2
4.077588208E0,-1.396424733E-3,2.125963558E-2,-1.178740203E-2,2.434881832E-2
4.087538208E0,-1.029269840E-3,9.078462396E-3,-1.792405486E-2,2.011839006E-2
4.097487208E0,-5.832414888E-4,1.651709144E-2,-1.418183684E-2,2.177794702E-2
4.107437208E0,6.410759334E-3,3.991932955E-3,-9.989383221E-3,1.252282480E-2
4.117387208E0,6.473370222E-4,6.495411485E-4,-2.151541471E-2,2.153494879E-2
4.127337208E0,5.711971382E-3,5.559276827E-3,-2.031673551E-2,2.182434232E-2
4.137287208E0,1.070300848E-3,8.120313885E-3,-1.088693082E-2,1.362388727E-2
4.147237208E0,8.985603587E-3,1.372823452E-3,-3.064584196E-2,3.196550242E-2
4.157187208E0,2.250876529E-3,-1.570269763E-3,-3.403079510E-3,4.371858007E-3
4.167137208E0,2.778459834E-3,-4.362022877E-3,-1.028817594E-2,1.151493147E-2
4.177087208E0,1.274015101E-2,-3.796852939E-3,-9.689421058E-3,1.645030153E-2
4.187037208E0,7.683561137E-3,-1.827704853E-3,-1.552786589E-2,1.742102855E-2
4.196987208E0,7.702742745E-3,-5.514499946E-3,-1.088751554E-2,1.443190736E-2
4.206937208E0,5.643992932E-3,5.254787640E-3,-2.720300138E-2,2.827491350E-2
4.216887208E0,3.866928164E-3,1.047552210E-2,1.201485872E-2,1.640263780E-2
4.226837208E0,-1.547972686E-3,9.834856843E-3,-1.388187468E-2,1.708294685E-2
4.236787208E0,2.113375599E-3,1.696605938E-2,-2.690362394E-2,3.187661382E-2
4.246737208E0,9.987501148E-4,2.345018072E-2,8.273225427E-3,2.488683862E-2
4.256687208E0,3.899581209E-3,1.302432340E-2,-2.750179410E-2,3.067879418E-2
4.266637208E0,-1.554966504E-3,7.592481617E-3,6.626649499E-3,1.019687116E-2
4.276587208E0,-6.192840915E-4,9.037059085E-3,-7.593194246E-3,1.181983708E-2
4.286537208E0,9.521377562E-3,5.387058053E-3,-2.525587857E-2,2.752337965E-2
4.296487208E0,1.620251580E-2,6.705947793E-3,2.069914341E-2,2.712832085E-2
4.306437208E0,-2.706388333E-3,1.954546035E-3,-2.914661586E-2,2.933717785E-2
4.316387208E0,7.064327295E-3,-9.889370708E-3,-6.393345594E-3,1.373241570E-2
4.326337208E0,9.262245409E-3,-3.441047582E-3,-1.303929090E-3,9.966455215E-3
4.336287208E0,1.096352935E-5,1.350352785E-3,-3.139077723E-2,3.141981012E-2
4.346237208E0,3.584288377E-3,-3.516357893E-3,5.881129503E-3,7.733018831E-3
4.356187208E0,4.971723016E-3,5.889014108E-5,-2.869754970E-2,2.912508981E-2
4.366137208E0,9.694852573E-3,1.611172636E-2,-1.642248988E-2,2.496549752E-2
4.376087208E0,7.556429878E-3,2.114959829E-2,1.539571881E-3,2.251167301E-2
4.386037208E0,-1.846148707E-3,1.218525481E-2,-2.764972866E-2,3.027203651E-2
4.395987208E0,3.206590223E-3,1.542608322E-2,7.977356315E-3,1.766025136E-2
4.405937208E0,-4.137430410E-3,1.906536283E-2,-1.208093226E-2,2.294679312E-2
4.415887208E0,3.481537267E-3,1.721069455E-2,-2.270824671E-2,2.870528831E-2
4.425837208E0,-1.776681044E-3,1.551206013E-2,1.241948605E-3,1.566279162E-2
4.435787208E0,-1.518001137E-3,6.777546492E-3,-2.764738977E-2,2.850644883E-2
4.445737208E0,5.079727485E-3,1.218598571E-3,-3.546921015E-3,6.314211153E-3
4.455687208E0,3.827066598E-3,6.688812710E-3,-1.297672570E-2,1.509245056E-2
4.465637208E0,7.441646294E-3,4.425314418E-4,-1.088049889E-2,1.318935896E-2
4.475587208E0,2.382374927E-3,5.679405131E-3,-5.519771576E-4,6.183529067E-3
4.485537208E0,1.048992772E-2,-1.148697164E-2,-3.004123986E-2,3.382994521E-2
4.495487208E0,9.843253079E-3,-6.796362649E-3,-1.297731042E-2,1.764910089E-2
4.505437208E0,1.496035249E-2,-8.489535861E-3,-1.301590204E-3,1.725046385E-2
4.515387208E0,6.800055988E-3,-3.448258387E-5,-2.540147424E-2,2.629594729E-2
4.525337208E0,7.805137541E-3,1.127098782E-3,1.692768931E-3,8.065729375E-3
4.535287208E0,5.909616407E-3,6.740316174E-3,-2.165867150E-2,2.344042404E-2
4.545237208E0,3.595891446E-3,5.967839600E-3,-1.372575402E-2,1.539291617E-2
4.555187208E0,-3.894487736E-3,6.838960529E-3,1.541326046E-3,8.019607336E-3
4.565137208E0,-2.385006174E-3,8.175519824E-3,-1.252941370E-2,1.514970582E-2
4.575087208E0,4.124484309E-3,3.183614777E-3,-5.788918912E-2,5.812318807E-2
4.585037208E0,-5.772658171E-2,3.738995882E-2,1.621228248E-1,1.761084256E-1
4.594987208E0,1.042881153E-1,-2.105071182E-2,-2.325794345E-1,2.557583563E-1
4.604937208E0,-6.869171904E-2,4.729005095E-2,7.637983918E-2,1.130874928E-1
4.614887208E0,1.589694397E-2,1.384065409E-2,-3.049966156E-2,3.707432924E-2
4.624837208E0,3.611219830E-2,4.146907011E-3,1.216279328E-2,3.833042192E-2
4.634787208E0,1.309990552E-2,9.172568307E-4,-3.962833464E-2,4.174750042E-2
4.644737208E0,1.470020622E-2,-6.943751313E-3,1.141668856E-2,1.986586325E-2
4.654687208E0,1.622036808E-2,-2.268043360E-2,-1.058696866E-2,2.982593359E-2
4.664637208E0,8.137506070E-3,-2.317714544E-2,-3.513767302E-2,4.287254531E-2
4.674587208E0,-4.820549651E-3,-2.748196382E-2,1.830061555E-2,3.336777732E-2
4.684537208E0,-2.184492359E-3,-1.693319849E-2,-4.696249723E-2,4.996980453E-2
4.694487208E0,2.937241889E-1,8.384435814E-2,-6.995608807E-3,3.055367638E-1
4.704437208E0,5.233095383E-1,1.086553915E-1,7.075715661E-3,5.345174766E-1
4.714387208E0,-1.066693372E0,-5.147353640E-1,-3.853899837E-3,1.184399467E0
4.724337208E0,1.111590596E-1,4.263480117E-1,-8.842042565E-2,4.493852860E-1
4.734287208E0,2.479631939E-2,-1.631422960E-2,5.438495278E-3,3.017596351E-2
4.744237208E0,-2.639353203E-2,3.250465354E-2,2.385371625E-2,4.818890758E-2
4.754187208E0,1.728615104E-2,2.284044403E-2,-1.416721880E-2,3.195632942E-2
4.764137208E0,-1.511362172E-1,-1.656325977E-1,-3.257717729E-2,2.265779911E-1
4.774087208E0,-6.521770915E-1,-4.039726908E-1,1.607458055E-2,7.673247590E-1
4.784037208E0,-7.224252480E-1,-7.248553874E-2,-6.379312277E-3,7.260806346E-1
4.793987208E0,-5.223741300E-1,2.997820185E-2,7.056069016E-2,5.279699189E-1
4.803937208E0,-5.365386810E-1,3.903074555E-1,-5.064215004E-2,6.654158800E-1
4.813886625E0,-4.007463069E-1,7.186292356E-1,1.357676697E-1,8.339415093E-1
4.823836625E0,2.583071834E-1,2.531947617E-1,2.383909822E-2,3.624892977E-1
4.833786625E0,4.678789937E-1,-1.742746363E-1,-3.764203548E-2,5.006988361E-1
4.843736625E0,4.241467177E-1,4.024139236E-2,-4.525861859E-2,4.284485388E-1
4.853686625E0,2.334253622E-1,-3.894667264E-2,6.828957313E-1,7.227384194E-1
4.863636625E0,5.412831483E-4,-1.627649404E-1,9.891208470E-2,1.904634330E-1
4.873586625E0,-3.522652146E-1,2.088762110E-1,-2.049665433E-1,4.579643401E-1
4.883536625E0,1.247042991E-1,3.006763273E-1,-1.618099988E-2,3.259129343E-1
4.893486625E0,-1.444742834E-2,-1.482136966E-1,-1.005498898E-1,1.796839124E-1
4.903436625E0,1.025737847E-1,-1.123597451E0,1.420873404E-2,1.128359208E0
4.913386625E0,8.095800804E-2,-1.084506914E0,1.070366739E0,1.525907731E0
4.923336625E0,-3.611325354E-2,3.459508064E-1,2.244721531E0,2.271510704E0
4.933286625E0,8.277654693E-1,3.858157194E0,1.836340880E0,4.352323567E0
4.943236625E0,2.252674621E0,5.248243253E0,1.466184062E0,5.896464695E0
4.953186625E0,8.947960491E-1,2.122242243E0,5.726144959E0,6.171977657E0
4.963136625E0,2.483436156E0,1.372560784E-3,5.168704163E0,5.734366552E0
4.973086625E0,2.068966507E0,1.881378474E0,1.927189654E-1,2.803096140E0
4.983036625E0,-1.502481531E0,1.787297066E0,-1.973470951E0,3.057199559E0
4.992986625E0,-3.569899403E0,-9.904143973E-1,-2.918568696E0,4.716263951E0
5.002936625E0,-2.781805245E0,-1.890465339E0,-2.914363378E0,4.450372290E0
5.012886625E0,-1.134251298E0,-4.366178785E-1,-2.398978681E0,2.689286130E0
5.022836625E0,-4.178968482E-1,-1.842603832E-2,-3.056655371E0,3.085144948E0
5.032786625E0,-1.377967705E0,-2.370412255E0,-5.399162228E0,6.055460513E0
5.042736625E0,1.381137480E0,-4.597903942E-1,-2.956415384E0,3.295351251E0
5.052686625E0,8.881492085E-2,-1.531189605E0,2.796477664E0,3.189469708E0
5.062636625E0,-1.392913115E-1,2.319227191E-1,3.553835347E0,3.564117828E0
5.072586625E0,-1.755519057E-1,1.827586429E0,3.778502330E0,4.200948760E0
5.082536625E0,-3.079003064E-2,-5.669786279E-1,4.167557348E0,4.206060751E0
5.092486625E0,1.842453559E0,-4.370935788E0,5.272617956E0,7.092264440E0
5.102436625E0,3.266100882E0,-3.363947019E0,1.849162654E0,5.040134625E0
5.112386625E0,1.714341649E0,-1.291040658E0,-2.853762835E-1,2.164992585E0
5.122336625E0,-9.803136977E-1,-4.399714760E-1,1.379251168E0,1.748406026E0
5.132286625E0,-3.064267861E0,9.220151304E-1,1.229682900E0,3.428114564E0
5.142236625E0,-2.763324828E0,3.396710796E-1,8.592307985E-1,2.913694924E0
5.152186625E0,-5.482882223E-1,-7.052847201E-1,-8.145592403E-1,1.208947173E0
5.162136625E0,6.399268824E-1,-1.218310139E0,-1.755470964E0,2.230574884E0
5.172086625E0,4.002438483E-1,-4.484037457E-1,-1.746256337E0,1.846800544E0
5.182036625E0,1.049334012E-1,4.353868204E-1,-1.861601436E-1,4.850034032E-1
5.191986625E0,-4.966736072E-1,6.466629479E-1,7.850565290E-1,1.131888419E0
5.201936625E0,-2.219955356E0,1.830060970E0,9.912796390E-1,3.043018282E0
5.211886625E0,-3.947904938E0,1.373329839E0,4.370888425E0,6.047863579E0
5.221836625E0,-4.897103335E0,-1.089963317E0,7.407526438E0,8.946568562E0
5.231786625E0,-2.333772432E0,-1.130930298E0,8.068322033E0,8.474863865E0
5.241736625E0,2.868244050E0,-1.261764088E-1,6.498084430E0,7.104072471E0
5.251686625E0,7.076218522E0,-2.961656828E0,-9.642742735E-1,7.731371457E0
5.261636625E0,7.505396549E0,-3.807561530E0,-6.943071574E0,1.091030453E1
5.271586625E0,4.723394253E0,1.048775018E0,-2.397558977E0,5.399876976E0
5.281536625E0,1.769565092E0,1.259782028E0,-3.012345171E-1,2.192978251E0
5.291486625E0,-1.633418523E0,2.673391435E0,-3.316605037E-1,3.150408946E0
5.301436625E0,-3.749621470E0,3.163897984E0,-1.258238363E0,5.064886514E0
5.311386625E0,-3.638631961E0,-1.422551554E0,4.902638894E-1,3.937467988E0
5.321336625E0,-9.872003290E-1,-4.666238889E0,-3.286433405E-1,4.780832177E0
5.331286625E0,1.701084257E0,-1.976221189E0,-2.082315116E0,3.336940826E0
5.341236625E0,3.565178946E0,1.612109807E0,-7.663436848E-1,3.987064282E0
5.351186625E0,4.463650993E0,-1.409629208E-1,2.531967754E0,5.133703482E0
5.361136625E0,3.641742387E0,-8.954858744E-1,2.908768762E0,4.746063451E0
5.371086625E0,1.707961752E0,1.648157600E-1,1.287514787E0,2.145225374E0
5.381036625E0,1.817069042E-1,1.505833447E-1,5.796403348E-1,6.258399640E-1
5.390986625E0,-1.184990877E-1,4.056172568E-1,-3.345250547E-1,5.389567747E-1
5.400936625E0,7.210429662E-1,-3.052056536E-1,-3.922341496E-1,8.757288840E-1
5.410886625E0,8.965027052E-1,-8.149056879E-1,-2.290974176E-1,1.232993920E0
5.420836625E0,6.629631579E-1,-9.880440822E-1,4.967800266E-1,1.289395848E0
5.430786625E0,9.147676528E-2,-2.853724244E0,5.693404645E-1,2.911401488E0
5.440736625E0,2.026677690E0,-3.778035137E0,-7.598374879E-1,4.354115865E0
5.450686625E0,3.042658891E0,-3.905132848E0,-3.257399055E0,5.926085073E0
5.460636625E0,3.308385022E0,-3.531174463E0,-5.933096048E0,7.656123905E0
5.470586625E0,3.800337002E0,-3.185068705E0,-6.611706355E0,8.264495442E0
5.480536625E0,2.518016882E0,-1.829883215E0,-6.060554824E0,6.813164197E0
5.490486625E0,-1.299265936E0,3.450333783E-1,-3.416624000E0,3.671574535E0
5.500436625E0,-2.940957685E0,2.320526589E0,-1.656055434E0,4.095924236E0
5.510386625E0,-3.593607523E0,5.817876663E0,-5.188602238E0,8.583897546E0
5.520336625E0,-3.829011748E0,5.860121627E0,-9.746723771E-3,7.000175101E0
5.530286625E0,-1.295026705E0,3.653258479E-1,6.443129373E0,6.582132881E0
5.540236625E0,9.613793170E-1,-8.463024585E-1,1.893910811E0,2.286345600E0
5.550186625E0,1.336856516E0,-8.196232215E-1,-7.320310539E-1,1.730559746E0
5.560136625E0,1.408929296E0,-5.454013789E-1,-1.814143095E0,2.360859927E0
5.570086625E0,1.496723485E0,-3.106888801E-1,-1.809702135E0,2.368909156E0
5.580036625E0,1.329811791E0,-5.881568044E-3,-1.397657034E0,1.929217244E0
5.589986625E0,1.104517402E0,4.142967175E-1,-1.043698173E0,1.575089311E0
5.599936625E0,8.221068263E-1,7.578466572E-1,-6.449993420E-1,1.290819639E0
5.609886625E0,7.421859133E-1,3.905071744E-1,-9.090578467E-1,1.236819288E0
5.619836625E0,1.123902676E0,4.508143334E-1,-6.193557930E-1,1.360144252E0
5.629786625E0,1.556020099E0,3.168560846E-1,-5.380654621E-1,1.676636743E0
5.639736625E0,1.451619233E0,8.173998177E-2,2.131193161E-1,1.469455567E0
5.649686625E0,7.200711590E-1,7.392138467E-1,3.737427979E0,3.877280939E0
5.659636625E0,-1.557554993E-1,1.344063502E0,4.834387270E0,5.020166008E0
5.669586625E0,-6.674813014E-1,1.194798339E0,2.748755028E0,3.070623481E0
5.679536625E0,-1.263645575E0,7.178628118E-1,1.249300309E0,1.916475520E0
5.689486625E0,-1.682983031E0,2.785193268E-1,9.067663229E-1,1.931898047E0
5.699436625E0,-2.095796749E0,-2.320331218E-1,4.546572697E-1,2.157062033E0
5.709386625E0,-2.103877016E0,-2.487678165E-1,1.084428123E0,2.379951319E0
5.719336625E0,-1.237969867E0,1.305237405E-2,9.285132873E-1,1.547538911E0
5.729286625E0,-9.533162990E-1,1.476989863E-1,5.124423784E-1,1.092347998E0
5.739236625E0,-1.066753014E0,1.105211467E-1,1.828896205E0,2.120150524E0
5.749186625E0,-1.336246944E0,-7.651530455E-1,3.294114307E0,3.636234886E0
5.759136625E0,-2.213119230E0,-3.882111775E0,5.128285285E0,6.802058404E0
5.769086625E0,-2.278042474E0,-6.208373605E0,1.544841392E0,6.791164499E0
5.779036625E0,-1.382249913E0,-5.065101442E0,-1.966839039E0,5.606632077E0
5.788986625E0,-1.036377825E0,-2.467051381E0,-4.397352923E0,5.147536716E0
5.798936625E0,-1.365965125E0,-1.680696478E0,-4.888910217E0,5.347152932E0
5.808886625E0,-2.289312982E0,-2.066843676E0,-3.284637725E0,4.505734312E0
5.818837208E0,-3.034789124E0,-1.124309496E0,4.542222369E-1,3.268078137E0
5.828787208E0,-2.779629204E0,9.726521641E-2,3.812195156E0,4.718965028E0
5.838737208E0,-2.544173524E0,9.193409063E-1,5.757094272E0,6.360985857E0
5.848687208E0,-2.819368928E0,1.037307897E0,6.456671525E0,7.121338077E0
5.858637208E0,-1.938720217E0,1.255032042E0,6.168179260E0,6.586362948E0
5.868587208E0,-1.258496810E0,1.012574029E-1,4.192694528E0,4.378670425E0
5.878537208E0,-1.241739274E0,-9.716126753E-1,2.091240306E0,2.619013867E0
5.888487208E0,-1.083203278E0,-1.373630679E0,1.555282180E0,2.340746300E0
5.898438208E0,-1.377182570E0,-1.032187344E0,2.552538843E0,3.078554383E0
5.908388208E0,-2.158969482E0,-8.134245881E-1,4.087535863E0,4.693693451E0
5.918338208E0,-2.760031384E0,-1.472497009E0,4.059209027E0,5.124763273E0
5.928288208E0,-2.943711723E0,-1.958527514E0,3.719944219E0,5.132178263E0
5.938238208E0,-2.606606000E0,-1.417591946E0,6.383942102E0,7.039792506E0
5.948188208E0,-1.285501883E0,-1.136449047E0,7.250643303E0,7.450896580E0
5.958138208E0,-3.702266917E-1,-1.402747327E0,4.832091068E0,5.045183045E0
5.968088208E0,2.637284294E-1,-1.157773550E0,4.181805258E0,4.347124049E0
5.978038208E0,2.355135673E-1,-7.987241033E-1,3.322459270E0,3.425224435E0
5.987988208E0,-1.374844122E-1,-6.624456793E-1,2.978937104E0,3.054799914E0
5.997938208E0,1.179789779E-1,-8.457035574E-1,2.864203624E0,2.988778336E0
6.007888208E0,4.008275101E-1,-1.422970215E0,2.488446343E0,2.894455411E0
6.017838208E0,4.424129078E-1,-1.703977167E0,2.138366525E0,2.769815655E0
6.027788208E0,5.050605610E-1,-1.413370841E0,1.514158128E0,2.131989245E0
6.037738208E0,6.689483678E-1,-3.860413635E-1,1.089308209E0,1.335332254E0
6.047688208E0,8.458634788E-1,-4.081941247E-2,3.598399901E-1,9.201282887E-1
6.057638208E0,1.199067756E0,-9.530727625E-2,-5.867523032E-1,1.338329267E0
6.067588208E0,1.552913766E0,-6.090214241E-1,-1.154918647E0,2.028863066E0
6.077538208E0,1.580719030E0,-5.765114897E-1,-1.412254608E0,2.196702353E0
6.087488208E0,1.586591097E0,-6.485480171E-1,-1.830257437E0,2.507534271E0
6.097438208E0,1.542945140E0,-1.018126545E0,-2.381167477E0,3.014501604E0
6.107388208E0,1.598379668E0,-1.593599569E0,-2.901790695E0,3.676243516E0
6.117338208E0,1.136906591E0,-5.086340868E-1,-2.030202976E0,2.381803803E0
6.127288208E0,8.116113666E-1,2.124550724E-1,-2.542868133E0,2.677690892E0
6.137238208E0,7.215233150E-1,-2.339576232E-1,-2.072683582E0,2.207113340E0
6.147188208E0,7.371871287E-1,-8.447612786E-1,-2.318530934E0,2.575393596E0
6.157138208E0,5.488898277E-1,-1.243810358E0,-2.738986085E0,3.057840582E0
6.167088208E0,5.481764674E-1,-2.275087291E0,-2.800392374E0,3.649481754E0
6.177038208E0,4.694440010E-1,-2.210467372E0,-4.301279662E0,4.858760171E0
6.186988208E0,-5.696211308E-2,-1.261777098E0,-5.554401126E0,5.696200312E0
6.196938208E0,-1.439724827E-1,-8.315945184E-1,-5.129066473E0,5.198038130E0
6.206888208E0,-5.384978637E-1,4.216111457E-1,-5.838246024E0,5.878167447E0
6.216838208E0,-9.348428982E-1,1.174369994E0,-4.462365775E0,4.708055271E0
6.226788208E0,-7.146159992E-1,7.392921263E-1,-3.380992237E0,3.533884178E0
6.236738208E0,-4.456145507E-1,-1.275517470E-1,-2.863862146E0,2.901128775E0
6.246688208E0,-5.085229897E-1,-1.646447289E-1,-1.877234552E0,1.951848632E0
6.256638208E0,-5.589908928E-1,-3.008673120E-1,-1.434181666E0,1.568396955E0
6.266588208E0,-4.380269113E-1,-6.289814794E-1,-1.756728115E0,1.916658276E0
6.276538208E0,1.196109357E-1,-5.296407938E-1,-1.972603224E0,2.045969116E0
6.286488208E0,6.008397076E-1,-4.854159629E-1,-2.525270353E0,2.640762649E0
6.296438208E0,8.985009912E-1,-6.887932330E-1,-2.718996794E0,2.945281602E0
6.306389208E0,7.945971385E-1,4.755248129E-1,-2.452637410E0,2.621629021E0
6.316339208E0,9.758912292E-1,1.651633769E-1,-2.142319243E0,2.359909823E0
6.326289208E0,1.216357681E0,-1.068210286E0,-2.086197667E0,2.640609764E0
6.336239208E0,1.153625243E0,-5.578886926E-2,-1.226398519E0,1.684641483E0
6.346189208E0,1.251140720E0,-1.104969977E0,-5.034458524E-1,1.743493469E0
6.356139208E0,1.020059050E0,-1.174657093E0,2.837922728E-1,1.581416392E0
6.366089208E0,6.729961029E-1,-1.919535649E0,8.860993391E-1,2.218718752E0
6.376039208E0,5.806668136E-1,-1.516622145E0,1.414750199E0,2.153795442E0
6.385989208E0,1.353798823E0,-9.486826730E-1,1.499006823E0,2.231544649E0
6.395939208E0,1.756218092E0,-4.914643228E-2,1.062856575E0,2.053382930E0
6.405889208E0,1.706001765E0,-2.098939919E-1,-5.808273196E-2,1.719846247E0
6.415839208E0,1.457373478E0,-3.774459565E-1,-9.438522881E-1,1.776868044E0
6.425789208E0,7.322798529E-1,-1.010621059E-1,-9.803330666E-1,1.227803019E0
6.435739208E0,3.411059497E-1,-5.374228531E-1,-7.149729717E-1,9.572684797E-1
6.445689208E0,-9.165364355E-2,-4.621867293E-1,-1.996806604E-1,5.117512377E-1
6.455639208E0,-2.171233432E-1,-3.471550405E-1,7.158453763E-2,4.156723642E-1
6.465589208E0,-1.043347925E-1,-1.850977045E-1,-7.601380348E-2,2.256656985E-1
6.475539208E0,4.804399824E-1,-3.292742550E-2,-3.696095181E-1,6.070568243E-1
6.485489208E0,1.067651438E0,-8.093031782E-1,-4.475388694E-1,1.412495050E0
6.495439208E0,1.175366652E0,-8.482824719E-1,-2.992961651E-1,1.480083820E0
6.505389208E0,1.174981759E0,2.894254804E-2,2.557186210E-1,1.202834909E0
6.515339208E0,1.144416170E0,-4.233729118E-1,3.492272937E-1,1.269209477E0
6.525289208E0,8.427381420E-1,-8.819916701E-1,5.468614286E-1,1.336852387E0
6.535239208E0,4.560844289E-1,-1.066238605E0,8.503032696E-1,1.438017183E0
6.545189208E0,-3.277759060E-2,-1.048820919E0,7.917252785E-1,1.314506982E0
6.555139208E0,-1.743687947E-1,-7.797133434E-1,1.188724324E0,1.432278916E0
6.565089208E0,4.958146513E-3,-7.073803622E-1,1.618727394E0,1.766547462E0
6.575039208E0,-2.449677841E-1,-5.788661635E-1,1.970940861E0,2.068744336E0
6.584989208E0,-3.437918682E-1,-6.094149417E-1,2.518192883E0,2.613594233E0
6.594939208E0,-4.217114255E-1,-9.806347829E-1,3.432150112E0,3.594320450E0
6.604890208E0,-6.532392383E-1,-1.409723933E0,3.760477703E0,4.068812557E0
6.614840208E0,-7.004717307E-1,-1.844756193E0,3.693078017E0,4.187196114E0
6.624790208E0,-5.379708834E-1,-2.119344948E0,4.170257592E0,4.708724250E0
6.634740208E0,-5.788943763E-1,-2.166422635E0,4.337157592E0,4.882565075E0
6.644690208E0,-6.204319730E-1,-2.276656099E0,4.528999475E0,5.106851777E0
6.654640208E0,-5.534850083E-1,-2.712440311E0,5.412001544E0,6.078934019E0
6.664590208E0,-4.520251456E-1,-3.019447784E0,5.415402285E0,6.216749437E0
6.674540208E0,-6.045553207E-1,-3.604845287E0,5.172511286E0,6.333661633E0
6.684490208E0,-6.301053143E-1,-4.029865944E0,5.173582495E0,6.588080758E0
6.694440208E0,-9.995973033E-1,-3.963857312E0,4.001661315E0,5.720546550E0
6.704390208E0,-8.991593876E-1,-4.147759845E0,3.631140216E0,5.585479264E0
6.714340208E0,-4.077240086E-1,-4.230871584E0,3.113368685E0,5.268735882E0
6.724290208E0,-2.700580403E-1,-4.423803388E0,2.892796800E0,5.292564699E0
6.734240208E0,-4.765738034E-1,-4.484007490E0,3.075153038E0,5.458022716E0
6.744190208E0,-6.523332122E-1,-4.343052755E0,3.238712524E0,5.456821846E0
6.754140208E0,-7.988284761E-1,-4.532853960E0,3.109070982E0,5.554386944E0
6.764090208E0,-9.349773842E-1,-4.524918119E0,2.548365101E0,5.276668587E0
6.774040208E0,-1.073726549E0,-4.351865678E0,2.910339324E0,5.344314602E0
6.783990208E0,-7.677949637E-1,-4.664611024E0,3.201238303E0,5.709293458E0
6.793940208E0,-8.635630006E-1,-5.330374998E0,2.827637183E0,6.095422112E0
6.803890208E0,-1.268518353E0,-5.392019269E0,3.071497943E0,6.333806930E0
6.813840458E0,-1.137864658E0,-5.839044169E0,2.688299789E0,6.528102981E0
6.823790458E0,-1.295535120E0,-6.124916296E0,1.816936310E0,6.518762799E0
6.833740458E0,-5.247376111E-1,-6.174362690E0,1.615434827E0,6.403728123E0
6.843690458E0,-1.452422056E-1,-5.619583547E0,1.297124393E0,5.769172058E0
6.853640458E0,-3.610106027E-1,-4.804448941E0,1.955151039E-1,4.821958568E0
6.863590458E0,-1.316073757E-1,-4.319669155E0,-1.534424577E0,4.585991811E0
6.873540458E0,-1.155462438E-1,-4.114120814E0,-3.337557365E0,5.298927266E0
6.883490458E0,-5.463053584E-3,-3.883167490E0,-4.789751964E0,6.166096292E0
6.893441458E0,5.076956087E-1,-3.551380979E0,-5.779730013E0,6.802598085E0
6.903391458E0,7.829579633E-1,-3.909912654E0,-6.684496588E0,7.783504016E0
6.913341458E0,4.246990603E-1,-4.136585231E0,-6.355464408E0,7.594974293E0
6.923291458E0,1.207590365E-1,-3.523289785E0,-5.339710078E0,6.398488679E0
6.933241458E0,-9.368642807E-2,-2.707640624E0,-4.368247238E0,5.140202216E0
6.943191458E0,1.791557640E-1,-1.698720227E0,-5.150748534E0,5.426597245E0
6.953141458E0,1.085091197E0,-1.537889637E0,-5.858423595E0,6.153344982E0
6.963091458E0,1.570166852E0,-2.405800481E0,-7.226170952E0,7.776300311E0
6.973041458E0,1.682541566E0,-2.180442943E0,-8.783531817E0,9.205200092E0
6.982991458E0,1.676314282E0,-1.435888615E0,-9.950524964E0,1.019238700E1
6.992941458E0,2.004741275E0,-1.362581487E0,-9.368165089E0,9.676679856E0
7.002891458E0,2.295409289E0,-2.020119891E0,-7.848322883E0,8.422942494E0
7.012841458E0,1.923905858E0,-2.384237558E0,-6.531690717E0,7.214498326E0
7.022791458E0,1.746994840E0,-3.485116822E0,-4.866006088E0,6.235065797E0
7.032741458E0,1.030527320E0,-3.214010669E0,-2.518967054E0,4.211537268E0
7.042691458E0,3.414440650E-1,-2.802143031E0,-8.758392298E-1,2.955619050E0
7.052641458E0,6.997596860E-2,-2.638369537E0,5.279883707E-1,2.691591011E0
7.062591458E0,-7.909119308E-2,-2.148688907E0,1.467168733E0,2.603018158E0
7.072541458E0,-9.354317129E-2,-1.721891427E0,1.183917913E0,2.091727047E0
7.082491458E0,-1.539507562E-1,-1.224035659E0,3.232071841E-1,1.275314477E0
7.092441458E0,1.246556211E-1,-6.651584950E-1,-8.270407069E-1,1.068630515E0
7.102391458E0,5.352921277E-1,-6.064851943E-1,-1.392754728E0,1.610629593E0
7.112341458E0,8.672403145E-1,-5.069731852E-1,-1.262629622E0,1.613493457E0
7.122291458E0,9.692520082E-1,-4.770190689E-1,-1.037320030E0,1.497674695E0
7.132241458E0,8.520252746E-1,-4.262392169E-1,-5.326696515E-1,1.091496173E0
7.142191458E0,6.730963826E-1,-3.957638213E-1,1.700557423E-1,7.991287118E-1
7.152142458E0,5.603129482E-1,-3.982380706E-1,7.728867191E-1,1.034358759E0
7.162092458E0,5.955640572E-1,-3.155370989E-1,1.328492074E0,1.489681643E0
7.172042458E0,6.663872874E-1,-1.662193841E-1,1.655290033E0,1.792117740E0
7.181992458E0,6.241662973E-1,7.894384325E-2,1.387283489E0,1.523276460E0
7.191942458E0,5.355950135E-1,1.501658535E-1,7.445850259E-1,9.294184541E-1
7.201892458E0,4.656517893E-1,1.219232172E-1,2.473512554E-1,5.411834285E-1
7.211842458E0,3.161852628E-1,1.557639778E-1,1.135084891E-1,3.702967922E-1
7.221792458E0,1.481158197E-1,1.291649938E-1,2.686930078E-1,3.328931121E-1
7.231742458E0,5.222148299E-3,3.059175521E-2,2.396779543E-1,2.416788119E-1
7.241692458E0,7.696105242E-3,-8.259747595E-2,3.080588025E-1,3.190325984E-1
7.251642458E0,1.221138364E-1,-1.751381421E-1,5.474122363E-1,5.875757946E-1
7.261592458E0,2.239261401E-1,-1.271857113E-1,5.399716544E-1,5.982378364E-1
7.271542458E0,3.504025841E-1,3.343701035E-2,4.690928757E-1,5.864709120E-1
7.281492458E0,4.373120892E-1,1.449317184E-1,3.269488174E-1,5.649270710E-1
7.291442458E0,4.385335726E-1,1.728779009E-1,8.704165220E-2,4.793482159E-1
7.301392458E0,3.657825154E-1,1.425077552E-1,5.490418553E-2,3.963833731E-1
7.311342458E0,2.369402879E-1,2.020213008E-2,1.453337145E-1,2.786946621E-1
7.321292458E0,1.057270145E-1,-1.599204710E-1,2.063225126E-1,2.816411509E-1
7.331242458E0,7.200846076E-2,-2.655603620E-1,3.291830385E-1,4.290326294E-1
7.341192458E0,1.172717571E-1,-2.843062431E-1,5.424923891E-1,6.236029964E-1
7.351142458E0,1.894480330E-1,-2.563650307E-1,6.250644296E-1,7.016545641E-1
7.361092458E0,2.117089677E-1,-2.474062192E-1,5.786363679E-1,6.639657902E-1
7.371042458E0,1.198205584E-1,-1.973771498E-1,4.432937908E-1,4.998240595E-1
7.380992458E0,-3.696375847E-2,-9.752512515E-2,4.022153467E-1,4.155173337E-1
7.390943458E0,-2.060114408E-1,-3.264325082E-2,2.736900383E-1,3.441112213E-1
7.400893458E0,-3.925288492E-1,-3.333380699E-2,8.867711842E-2,4.037990484E-1
7.410843458E0,-5.739615190E-1,-6.003804088E-2,-1.398303151E-1,5.937919742E-1
7.420793458E0,-7.272661579E-1,-1.009495470E-1,-3.054328179E-1,7.952333505E-1
7.430743458E0,-7.151507270E-1,-1.669497013E-1,-2.125790334E-1,7.645277043E-1
7.440693458E0,-5.644130158E-1,-2.546196368E-1,-4.163159072E-2,6.205855310E-1
7.450643458E0,-4.538035762E-1,-2.967190048E-1,6.918367088E-2,5.465951280E-1
7.460593458E0,-3.142194289E-1,-3.492126757E-1,1.537309009E-1,4.942838580E-1
7.470543458E0,-2.257849699E-1,-3.513094872E-1,1.252999842E-1,4.360014845E-1
7.480493458E0,-2.083637756E-1,-3.560875395E-1,1.117595869E-1,4.274388892E-1
7.490443458E0,-2.308971906E-1,-4.153277278E-1,5.385227144E-2,4.782370764E-1
7.500393458E0,-2.845816469E-1,-3.766095123E-1,-1.508745360E-1,4.955648940E-1
7.510343458E0,-3.212366724E-1,-2.352937120E-1,-3.762192106E-1,5.478111217E-1
7.520293458E0,-3.133400077E-1,-1.583414304E-1,-5.879515672E-1,6.847926798E-1
7.530243458E0,-2.055231982E-1,-1.505988398E-1,-6.100341618E-1,6.611062503E-1
7.540193458E0,-5.724482596E-2,-1.678247371E-1,-5.103479058E-1,5.402750202E-1
7.550143458E0,2.846015275E-2,-1.958241293E-1,-4.601255858E-1,5.008718645E-1
7.560093458E0,8.691827595E-2,-2.609343374E-1,-4.435779655E-1,5.219223377E-1
7.570043458E0,8.487233520E-2,-3.559603626E-1,-4.529235703E-1,5.822807343E-1
7.579993458E0,6.038127244E-2,-3.476947385E-1,-2.554438019E-1,4.356478683E-1
7.589943458E0,3.831738889E-2,-2.751193902E-1,-7.408422232E-4,2.777758989E-1
7.599893458E0,3.994934678E-2,-1.822612202E-1,1.791528404E-2,1.874461525E-1
7.609844458E0,7.123545885E-2,-1.210709855E-1,-6.664188623E-2,1.554793077E-1
7.619794458E0,2.017575914E-1,-1.882973009E-1,-1.553511643E-1,3.166954112E-1
7.629744458E0,3.200912029E-1,-2.853470474E-1,-1.578297991E-1,4.569371522E-1
7.639694458E0,3.686359566E-1,-3.131806710E-1,-1.208005518E-1,4.985653162E-1
7.649644458E0,3.354167551E-1,-3.317780328E-1,-9.970789075E-2,4.822061033E-1
7.659594458E0,2.530844504E-1,-2.475868982E-1,-1.495209056E-1,3.843273506E-1
7.669544458E0,1.960512936E-1,-1.386705199E-1,-2.849389118E-1,3.726336086E-1
7.679494458E0,1.381363767E-1,-1.117780057E-1,-4.307029814E-1,4.659195631E-1
7.689444458E0,7.348956048E-2,-1.656966430E-1,-4.936470884E-1,5.258740732E-1
7.699394458E0,5.830258727E-2,-2.237258729E-1,-4.403643358E-1,4.973662696E-1
7.709344458E0,2.823445022E-2,-2.996718487E-1,-4.266684026E-1,5.221554623E-1
7.719294458E0,-5.704017341E-2,-2.562808308E-1,-4.821140403E-1,5.489693921E-1
7.729244458E0,-1.626648617E-1,-1.846641335E-1,-5.239333266E-1,5.788495747E-1
7.739194458E0,-2.803172725E-1,-1.290690994E-1,-5.725324595E-1,6.504075821E-1
7.749144458E0,-3.552990425E-1,-1.113765943E-1,-5.211313409E-1,6.404842151E-1
7.759094458E0,-3.491647285E-1,-4.364274055E-2,-4.262327850E-1,5.527160966E-1
7.769044458E0,-2.245494533E-1,-6.006259918E-2,-3.238468695E-1,3.986311173E-1
7.778994458E0,-2.196255130E-1,-2.143291050E-1,-3.471088475E-1,4.633107847E-1
7.788944458E0,-1.902982181E-1,-2.351928475E-1,-2.452620453E-1,3.894644505E-1
7.798894458E0,-9.930618703E-2,-2.957656163E-1,6.413518488E-2,3.185158403E-1
7.808844458E0,-7.460228562E-2,-2.078562373E-1,2.328811508E-1,3.209413448E-1
7.818793958E0,-8.842744231E-3,2.071960866E-2,2.325466901E-1,2.336353128E-1
7.828743958E0,1.852941710E-1,1.579759794E-1,-1.173752528E-1,2.703096185E-1
7.838694958E0,2.581949168E-1,3.413771144E-1,-5.611853528E-1,7.057846339E-1
7.848644958E0,4.276337779E-1,3.241026852E-1,-9.890658832E-1,1.125239761E0
7.858594958E0,4.161843449E-1,2.502894813E-1,-1.005027612E0,1.116214466E0
7.868544958E0,4.060850340E-1,1.582706791E-1,-7.127989769E-1,8.354861125E-1
7.878494958E0,2.815217990E-1,7.150735438E-2,-3.000791073E-1,4.176305732E-1
7.888444958E0,1.163835651E-1,-3.546628654E-2,2.571354014E-1,2.844672324E-1
7.898394958E0,-3.428807259E-3,-2.036912656E-1,6.784834224E-1,7.084078224E-1
7.908344958E0,-1.399034053E-1,-3.085645866E-1,7.397090328E-1,8.136058752E-1
7.918294958E0,-1.731711388E-1,-2.558846819E-1,8.688120461E-1,9.221169043E-1
7.928244958E0,-1.501138133E-1,-4.346896130E-1,7.785023850E-1,9.041875801E-1
7.938194958E0,-1.422528166E-1,-3.442197382E-1,4.895692402E-1,6.151431809E-1
7.948144958E0,-1.895339870E-1,-3.291023469E-1,9.425828576E-2,3.913005385E-1
7.958094958E0,-2.887711769E-1,-2.521711153E-1,-2.278034288E-1,4.459523138E-1
7.968044958E0,-3.791761476E-1,-2.786227494E-1,-3.510147876E-1,5.870405169E-1
7.977994958E0,-4.320536882E-1,-3.787276661E-1,-2.458526140E-1,6.249388309E-1
7.987944958E0,-4.742641532E-1,-4.075743198E-1,-1.884323716E-2,6.256183987E-1
7.997894958E0,-5.569888061E-1,-3.914851213E-1,1.063240153E-1,6.890587250E-1
8.007844958E0,-5.145643330E-1,-4.191208166E-1,2.534341139E-1,7.103995789E-1
8.017794958E0,-4.557232171E-1,-4.124754560E-1,2.513653690E-1,6.640814718E-1
8.027744958E0,-3.670753348E-1,-3.570064294E-1,2.425805122E-1,5.666067392E-1
8.037694958E0,-1.928166139E-1,-3.485683125E-1,3.325323236E-1,5.188987005E-1
8.047645958E0,-3.866120517E-2,-3.603171229E-1,2.491095132E-1,4.397484138E-1
8.057595958E0,1.869939566E-3,-2.962702310E-1,4.846347749E-2,3.002136824E-1
8.067545958E0,-8.828418553E-2,-2.681772834E-1,-6.964793980E-2,2.907988794E-1
8.077495958E0,-2.248833293E-1,-1.805818999E-1,-5.872943401E-2,2.943322625E-1
8.087445958E0,-2.323110473E-1,-3.218363044E-1,7.846963406E-4,3.969227195E-1
8.097395958E0,-2.881227207E-1,-2.174637973E-1,5.950243592E-2,3.658493477E-1
8.107345958E0,-3.206577981E-1,-3.464182913E-2,-1.064070457E-1,3.396232312E-1
8.117295958E0,-3.259582990E-1,1.624473453E-2,-1.697972953E-1,3.678910513E-1
8.127245958E0,-2.971765494E-1,-7.855909646E-2,-3.050989419E-1,4.330944441E-1
8.137195958E0,-3.497868723E-1,-1.954531235E-1,-4.230203247E-1,5.826654054E-1
8.147145958E0,-4.127584612E-1,-3.982129276E-2,-4.182770634E-1,5.889914977E-1
8.157095958E0,-3.865360379E-1,-1.322040841E-1,-3.833159763E-1,5.601956499E-1
8.167045958E0,-3.690546173E-1,-9.932869881E-2,-1.095803297E-1,3.975869082E-1
8.176995958E0,-4.110522437E-1,-1.297283730E-1,1.777904391E-2,4.314040939E-1
8.186945958E0,-3.702451104E-1,-2.076106542E-1,1.207186908E-1,4.413123926E-1
8.196895958E0,-2.862861103E-1,-2.692215961E-1,1.671835899E-2,3.933440076E-1
8.206845958E0,-2.278583926E-1,-2.817662126E-1,-2.111909044E-1,4.194201279E-1
8.216795958E0,-1.812151533E-1,-2.152994505E-1,-4.798558456E-1,5.562862731E-1
8.226745958E0,-1.265050954E-1,-3.063736349E-2,-6.538420862E-1,6.666720790E-1
8.236695958E0,6.829840243E-2,-2.696873268E-1,-7.786450571E-1,8.268518918E-1
8.246645958E0,1.503868783E-1,-1.751083213E-1,-7.982490170E-1,8.309516415E-1
8.256596958E0,2.306288034E-1,-7.575944960E-2,-7.833345240E-1,8.200866513E-1
8.266546958E0,2.522868901E-1,-1.456947801E-1,-6.488362849E-1,7.112412871E-1
8.276496958E0,2.938184935E-1,-1.496048132E-1,-2.323396987E-1,4.033517606E-1
8.286446958E0,2.999165547E-1,-1.875441796E-1,1.110801405E-1,3.707580838E-1
8.296396958E0,2.858580941E-1,-1.920158377E-1,2.562606579E-1,4.292487119E-1
8.306346958E0,2.680591697E-1,-2.067484823E-1,2.422922444E-1,4.163005946E-1
8.316296958E0,1.965787125E-1,-2.093054697E-1,2.750881076E-2,2.884591904E-1
8.326246958E0,9.409339428E-2,-1.471112680E-1,-2.260796696E-1,2.856699302E-1
8.336196958E0,2.788127840E-2,-9.380132586E-2,-4.543198854E-1,4.647392954E-1
8.346146958E0,3.216553330E-2,-6.559786588E-2,-4.943089932E-1,4.996789793E-1
8.356096958E0,3.991367877E-2,-2.280238688E-2,-4.184285063E-1,4.209459175E-1
8.366046958E0,8.011562526E-2,-6.598729044E-2,-2.064353639E-1,2.310592897E-1
8.375996958E0,6.978593409E-2,-1.574386203E-1,-5.012817979E-3,1.722850084E-1
8.385946958E0,5.867505491E-2,-2.163861555E-1,1.480152476E-1,2.686526454E-1
8.395896958E0,5.210336924E-2,-2.493694219E-1,1.760912383E-1,3.096901578E-1
8.405846958E0,7.519519329E-2,-2.381994858E-1,9.348703802E-2,2.667079647E-1
8.415796958E0,1.412149358E-1,-2.110844851E-1,-4.258585632E-2,2.575109184E-1
8.425746958E0,1.660942537E-1,-1.282884961E-1,-2.858604330E-1,3.546285754E-1
8.435696958E0,1.503213894E-1,-6.194306374E-2,-5.325041753E-1,5.567711918E-1
8.445646958E0,1.696563774E-1,-5.234895229E-2,-6.219408470E-1,6.467875358E-1
8.455596958E0,1.242580104E-1,-1.167881924E-1,-6.242557597E-1,6.471281083E-1
8.465547958E0,6.101803422E-2,-1.850237373E-1,-4.600507414E-1,4.996035113E-1
8.475497958E0,-1.137809694E-2,-2.711207718E-1,-2.348978555E-1,3.589051915E-1
8.485447958E0,-8.070853293E-2,-3.336389092E-1,-1.073320752E-1,3.596511690E-1
8.495397958E0,-3.634921610E-2,-3.849771702E-1,6.747686863E-4,3.866899823E-1
8.505347958E0,5.667472243E-2,-3.608997980E-1,6.850130081E-2,3.716895432E-1
8.515297958E0,1.886574894E-1,-2.954823187E-1,6.317858040E-2,3.562204121E-1
8.525247958E0,2.700191563E-1,-2.511788428E-1,3.117384553E-2,3.700985875E-1
8.535197958E0,2.911270201E-1,-2.269482735E-1,-5.665250301E-2,3.734567803E-1
8.545147958E0,2.400282025E-1,-2.429237437E-1,-1.120911241E-1,3.594299700E-1
8.555097958E0,9.943073273E-2,-2.593152434E-1,-9.260644734E-2,2.927572717E-1
8.565047958E0,-6.830717325E-2,-2.298903000E-1,1.022502601E-2,2.400416029E-1
8.574997958E0,-1.916775763E-1,-1.926716030E-1,4.233384132E-2,2.750541655E-1
8.584947958E0,-2.611454219E-1,-9.340020686E-2,-5.929310560E-2,2.836127684E-1
8.594897958E0,-3.143685329E-1,-3.685236901E-2,-1.242948478E-1,3.400512914E-1
8.604847958E0,-3.279159468E-1,-4.672568500E-2,-1.691505933E-1,3.719194550E-1
8.614797958E0,-2.863521838E-1,-9.191033632E-2,-1.964477348E-1,3.592169200E-1
8.624747958E0,-2.295722115E-1,-1.887095296E-1,-1.647651815E-1,3.397973689E-1
8.634697958E0,-1.774945700E-1,-2.862431332E-1,-2.568272531E-2,3.377855179E-1
8.644647958E0,-1.229365396E-1,-3.168188086E-1,6.429656804E-2,3.458635554E-1
8.654597958E0,-5.607538283E-2,-2.769665256E-1,1.481023711E-1,3.190442245E-1
8.664548958E0,1.339714050E-2,-2.138622048E-1,6.250732005E-2,2.232122109E-1
8.674498958E0,6.427785695E-2,-1.110251766E-1,-1.734295857E-1,2.157221684E-1
8.684448958E0,9.546456635E-2,-2.528920770E-3,-4.556705922E-1,4.655701531E-1
8.694398958E0,8.249076426E-2,4.408215880E-2,-6.863315552E-1,6.926752245E-1
8.704348958E0,7.618746579E-2,4.625439942E-2,-7.029277074E-1,7.085558279E-1
8.714298958E0,9.353030741E-2,-2.319678158E-2,-5.488003653E-1,5.571964196E-1
8.724248958E0,1.888457698E-1,-9.250265926E-2,-2.716932142E-1,3.435646509E-1
8.734198958E0,2.771685469E-1,-1.332434267E-1,-4.112288296E-2,3.102697305E-1
8.744148958E0,3.063233489E-1,-1.121440414E-1,4.018382013E-2,3.286715982E-1
8.754098958E0,2.684439164E-1,-1.131760749E-1,3.383608282E-2,2.932845729E-1
8.764048958E0,2.098366892E-1,-1.107640985E-1,3.202052236E-2,2.394273074E-1
8.773998958E0,1.311121166E-1,-8.699078143E-2,4.987616479E-2,1.650618520E-1
8.783948958E0,2.020856202E-2,-6.595513076E-2,-9.770697355E-4,6.898854917E-2
8.793898958E0,-1.382199919E-1,-6.165421128E-2,-7.015255451E-2,1.668154335E-1
8.803848958E0,-2.708173013E-1,-7.344482929E-2,-1.327762341E-1,3.104282235E-1
8.813798958E0,-3.426871830E-1,-1.094452590E-1,-1.140668982E-1,3.773910802E-1
8.823748958E0,-2.798875022E-1,-1.858765537E-1,5.448903322E-2,3.403765001E-1
8.833698958E0,-1.310051125E-1,-2.385672757E-1,2.619891751E-1,3.777764053E-1
8.843648958E0,-7.150969326E-2,-2.211878890E-1,1.879528999E-1,2.989381392E-1
8.853599958E0,-7.925491512E-2,-2.498889470E-1,7.557818592E-2,2.728330801E-1
8.863549958E0,-1.329773784E-1,-2.033187979E-1,-1.675279909E-1,2.951053109E-1
8.873499958E0,-2.061125976E-1,-1.374186310E-1,-2.359333974E-1,3.420977215E-1
8.883449958E0,-2.921052593E-1,-1.230300951E-1,-2.774965757E-1,4.212674167E-1
8.893399958E0,-3.059707618E-1,-1.316231632E-1,-2.661301732E-1,4.263426242E-1
8.903349958E0,-2.669704181E-1,-1.484806859E-1,-3.530402631E-1,4.668588069E-1
8.913299958E0,-1.471866971E-1,-1.569389758E-1,-3.592073214E-1,4.187166890E-1
8.923249958E0,-4.105680943E-2,-1.291465750E-1,-3.714443743E-1,3.953927448E-1
8.933199958E0,4.756943822E-2,-1.501740396E-1,-4.421190852E-1,4.693446272E-1
8.943149958E0,1.427129924E-1,-1.819612581E-1,-4.740074605E-1,5.274087317E-1
8.953099958E0,1.566451532E-1,-2.257121721E-1,-5.496043575E-1,6.144498665E-1
8.963049958E0,1.841954792E-1,-2.796553677E-1,-5.071073788E-1,6.076948189E-1
8.972999958E0,2.043660343E-1,-2.892418778E-1,-4.467027175E-1,5.700611000E-1
8.982949958E0,2.392575395E-1,-2.780690181E-1,-3.828920531E-1,5.302573653E-1
8.992899958E0,3.155303746E-1,-2.126801902E-1,-3.314242762E-1,5.046130513E-1
9.002849958E0,3.688984966E-1,-1.694990873E-1,-3.738756466E-1,5.519049198E-1
9.012799958E0,3.795942235E-1,-1.392140186E-1,-4.884120762E-1,6.340494253E-1
9.022749958E0,2.977016294E-1,-1.578862247E-1,-5.344670856E-1,6.318301874E-1
9.032699958E0,2.112125391E-1,-2.168714744E-1,-4.458782601E-1,5.389354283E-1
9.042649958E0,1.542162198E-1,-2.756023702E-1,-1.650242132E-1,3.563317273E-1
9.052600958E0,1.213484359E-1,-2.664783749E-1,7.681838036E-2,3.027164197E-1
9.062550958E0,2.351077706E-1,-1.298625666E-1,9.465706587E-2,2.847804595E-1
9.072500958E0,4.901142007E-1,5.034452677E-4,-3.622560596E-1,6.094601184E-1
9.082450958E0,7.780053717E-1,5.068775833E-2,-1.071417484E0,1.325064916E0
9.092400958E0,9.784338909E-1,6.469154745E-2,-1.841546656E0,2.086339369E0
9.102350958E0,1.112722215E0,-1.751369727E-1,-2.145036444E0,2.422809327E0
9.112300958E0,1.034018692E0,-4.389080867E-1,-1.995665227E0,2.290090536E0
9.122250958E0,9.454953557E-1,-4.664961272E-1,-1.484641383E0,1.820917390E0
9.132200958E0,1.045327207E0,-5.701236990E-1,-1.246864944E0,1.724071399E0
9.142150958E0,1.052643244E0,-4.331035557E-1,-1.411962247E0,1.813635541E0
9.152100958E0,1.284811619E0,-3.977504128E-1,-2.003603407E0,2.413166571E0
9.162050958E0,1.552448620E0,-3.193965536E-1,-3.020593253E0,3.411172009E0
9.172000958E0,1.691680765E0,-2.401316983E-1,-4.097617632E0,4.439585262E0
9.181950958E0,1.833830670E0,-2.611483455E-1,-4.793335723E0,5.138793704E0
9.191900958E0,1.580439826E0,-2.928385001E-1,-5.232547572E0,5.473855910E0
9.201850958E0,1.247294714E0,-3.048241228E-1,-5.432505975E0,5.582184431E0
9.211800958E0,8.841633260E-1,-3.621660125E-1,-5.273931826E0,5.359782263E0
9.221750958E0,6.710960501E-1,-7.297880620E-1,-5.180219085E0,5.274242154E0
9.231701958E0,3.781002599E-1,-9.771346396E-1,-5.383494614E0,5.484502363E0
9.241651958E0,3.787352675E-1,-1.681625308E0,-5.513101072E0,5.776295310E0
9.251601958E0,1.922792548E-1,-2.340764971E0,-5.542360539E0,6.019461131E0
9.261551958E0,-6.836623013E-2,-2.584403830E0,-5.609536861E0,6.176626983E0
9.271501958E0,-2.297312558E-2,-2.880416198E0,-5.596190007E0,6.294018417E0
9.281451958E0,-5.609292448E-2,-3.355881370E0,-5.676756452E0,6.594744120E0
9.291401958E0,-4.627252579E-2,-3.631257160E0,-5.343299099E0,6.460573889E0
9.301351958E0,-8.151895702E-3,-3.823776151E0,-4.985338404E0,6.282907727E0
9.311301958E0,1.030364183E-1,-4.773521263E0,-4.685762157E0,6.689804836E0
9.321251958E0,1.148059863E-1,-5.532234916E0,-4.372527984E0,7.052503425E0
9.331201958E0,8.653385076E-1,-6.369080234E0,-4.289173586E0,7.727289552E0
9.341151958E0,1.998317817E0,-7.316639657E0,-3.211082091E0,8.236354665E0
9.351101958E0,2.269999629E0,-8.660185388E0,-2.639149556E0,9.333639142E0
9.361051958E0,1.792325964E0,-9.918709095E0,-2.125090130E0,1.030093348E1
9.371001958E0,-2.157227889E-1,-9.401943870E0,2.658386018E0,9.772926945E0
9.380951958E0,-2.199459988E0,-6.168495010E0,6.214726020E0,9.028331763E0
9.390901958E0,-2.134087825E0,-4.203480887E0,7.387302089E0,8.763322119E0
9.400851958E0,-1.819962536E0,-3.653353788E0,9.505172954E0,1.034444636E1
9.410801958E0,-8.710138151E-1,-3.486928582E0,8.517428541E0,9.244670084E0
9.420752958E0,-3.263544479E-1,-3.182567559E0,6.508935692E0,7.252688284E0
9.430702958E0,-5.087188715E-1,-2.168673229E0,3.889890911E0,4.482542778E0
9.440652958E0,-7.970199323E-1,-1.928660229E0,2.029864130E0,2.911240189E0
9.450602958E0,-1.272945572E0,-1.454352806E0,1.087295305E0,2.217598610E0
9.460552958E0,-1.400660164E0,-1.272574566E0,1.055608659E0,2.166934369E0
9.470502958E0,-1.194311046E0,-1.113912123E0,1.376974555E0,2.136173687E0
9.480452958E0,-7.630022934E-1,-1.077649446E0,1.311180515E0,1.860831849E0
9.490402958E0,-2.942950416E-1,-9.565179420E-1,1.816698328E0,2.074109197E0
9.500352958E0,-1.287121269E-1,-6.799902499E-1,2.653818465E0,2.742572879E0
9.510302958E0,-8.380171001E-2,-6.238733518E-1,3.549361643E0,3.604748085E0
9.520252958E0,-3.421732128E-2,-5.887783635E-1,4.391962960E0,4.431384595E0
9.530202958E0,9.697051674E-2,-6.773116404E-1,4.728107693E0,4.777358757E0
9.540152958E0,5.044170749E-1,-8.228523463E-1,4.649902353E0,4.749011946E0
9.550102958E0,8.811631197E-1,-7.032013571E-1,3.970034310E0,4.126998064E0
9.560052958E0,1.127230911E0,-6.731729811E-1,3.174749832E0,3.435527308E0
9.570002958E0,9.288860473E-1,-4.917356336E-1,2.486560324E0,2.699558383E0
9.579952958E0,5.122494203E-1,-2.596169597E-1,1.500108438E0,1.606276987E0
9.589902958E0,9.783385813E-2,-3.283661824E-1,1.082009130E0,1.134962366E0
9.599853958E0,-3.379497689E-1,-1.856976289E-1,1.473438995E0,1.523061433E0
9.609803958E0,-5.908012077E-1,-2.309802210E-1,1.775911368E0,1.885804634E0
9.619753958E0,-5.981210446E-1,-3.938631839E-1,2.028686208E0,2.151382049E0
9.629703958E0,-4.421442282E-1,-4.171128827E-1,2.243691251E0,2.324569876E0
9.639653958E0,-1.394101927E-1,-4.244762814E-1,2.305220332E0,2.348117564E0
9.649603958E0,2.246772149E-1,-5.985970080E-1,2.348420438E0,2.433901556E0
9.659553958E0,3.413560644E-1,-7.193841112E-1,2.398613230E0,2.527327222E0
9.669503958E0,2.078845963E-1,-8.002452564E-1,2.508722148E0,2.641457039E0
9.679453958E0,4.165761083E-2,-9.694426274E-1,2.910957375E0,3.068424222E0
9.689403958E0,-5.063688755E-3,-1.329641637E0,3.610856810E0,3.847890256E0
9.699353958E0,-2.993987837E-1,-1.443397463E0,3.971144404E0,4.235920649E0
9.709303958E0,-8.683507007E-1,-1.536440113E0,3.992074805E0,4.364784348E0
9.719253958E0,-1.413696823E0,-1.663759725E0,3.762822144E0,4.350340862E0
9.729203958E0,-1.457786291E0,-2.119718585E0,3.638273234E0,4.455937598E0
9.739153958E0,-1.178984617E0,-2.536743760E0,3.479610207E0,4.464612057E0
9.749103958E0,-1.260244835E0,-2.674986556E0,3.607651366E0,4.664645592E0
9.759054958E0,-1.516993150E0,-2.946847000E0,3.965389282E0,5.168122253E0
9.769004958E0,-1.679489612E0,-3.403021622E0,3.931005900E0,5.463885880E0
9.778954958E0,-1.638698559E0,-3.940895296E0,4.140443809E0,5.946365582E0
9.788904958E0,-1.429827245E0,-4.405616208E0,4.318624842E0,6.332801959E0
9.798854958E0,-1.029890850E0,-5.040774686E0,4.518460454E0,6.847376832E0
9.808804958E0,-9.601660198E-1,-5.878671919E0,4.569041208E0,7.507119279E0
9.818754875E0,-1.553681213E0,-6.136724163E0,4.342436166E0,7.676591732E0
9.828704875E0,-1.897030593E0,-5.333116758E0,3.895788412E0,6.871537439E0
9.838654875E0,-1.863181939E0,-4.952118618E0,2.015195220E0,5.661796315E0
9.848604875E0,-1.651611257E0,-5.513105750E0,3.790217811E-1,5.767652232E0
9.858554875E0,-8.482988441E-1,-5.946203751E0,-2.626540035E-1,6.012149125E0
9.868504875E0,-5.620519102E-1,-4.523422986E0,3.324697584E-1,4.570316619E0
9.878454875E0,-7.915258884E-2,-2.920814027E0,1.163746773E0,3.145111486E0
9.888404875E0,6.879453868E-1,-2.966752676E0,6.914841217E-1,3.122985845E0
9.898354875E0,9.113242275E-1,-3.255020993E0,-3.693399614E-1,3.400306680E0
9.908304875E0,7.052303410E-1,-3.383150152E0,-2.282485773E0,4.141593424E0
9.918254875E0,6.090845740E-1,-3.496374467E0,-4.366526987E0,5.626915350E0
9.928204875E0,4.647940028E-1,-2.983395606E0,-6.494002488E0,7.161616516E0
9.938155875E0,4.249271017E-1,-1.901018686E0,-8.016613936E0,8.249880853E0
9.948105875E0,7.078177339E-1,-1.509403464E0,-8.355160705E0,8.519860044E0
9.958055875E0,1.085553712E0,-1.658235568E0,-8.909853310E0,9.127631569E0
9.968005875E0,1.090782292E0,-1.399669645E0,-9.217539060E0,9.386794312E0
9.977955875E0,9.227157730E-1,-8.525693581E-1,-9.452876626E0,9.535992629E0
9.987905875E0,8.924634486E-1,-1.068646050E0,-9.204185774E0,9.308895270E0
9.997855875E0,7.047210485E-1,-1.210821537E0,-8.201809289E0,8.320600709E0
1.000780588E1,6.022064942E-1,-1.373960900E0,-6.814790094E0,6.977949932E0
1.001775588E1,7.611408323E-1,-1.321356424E0,-5.399790804E0,5.610976643E0
1.002770588E1,1.204577295E0,-1.293817500E0,-4.194170950E0,4.551487685E0
1.003765587E1,1.675672842E0,-1.309315984E0,-3.746968296E0,4.308359227E0
1.004760588E1,1.920708016E0,-1.788038347E0,-4.018329973E0,4.799289133E0
1.005755588E1,2.051852292E0,-2.544944772E0,-4.062047265E0,5.214122141E0
1.006750588E1,1.827590522E0,-2.574650966E0,-2.936265294E0,4.311678164E0
1.007745587E1,1.373223274E0,-2.418659824E0,-1.442498161E0,3.133122795E0
1.008740588E1,8.638202780E-1,-2.163223916E0,-1.429807949E-1,2.333702357E0
1.009735688E1,4.331903869E-1,-1.539946395E0,5.465029943E-1,1.690489377E0
1.010730687E1,1.767180598E-1,-1.212529508E0,1.086838346E0,1.637887258E0
1.011725688E1,1.640202463E-2,-7.474539623E-1,1.623013988E0,1.786933366E0
1.012720688E1,-7.279783487E-3,-4.849499398E-1,1.506314673E0,1.582470642E0
1.013715688E1,1.502559006E-2,-1.320576113E-1,1.034411041E0,1.042914753E0
1.014710687E1,4.029374778E-2,4.476979136E-2,5.547867447E-1,5.580468192E-1
1.015705688E1,5.521408796E-2,1.474869516E-1,1.397589791E-1,2.105553814E-1
1.016700688E1,7.531389177E-2,1.043611050E-2,-7.506129205E-2,1.068423711E-1
1.017695688E1,-1.580268502E-2,-4.035017341E-2,9.456234097E-2,1.040187372E-1
1.018690687E1,-1.306221199E-1,-1.175047687E-1,4.008155233E-1,4.376329427E-1
1.019685688E1,-2.676071799E-1,-2.004144859E-1,6.623532933E-1,7.419511130E-1
1.020680688E1,-3.777389020E-1,-2.461908755E-1,8.342134863E-1,9.482661894E-1
1.021675688E1,-3.955711555E-1,-2.973092812E-1,1.020505777E0,1.134152278E0
1.022670687E1,-3.680243379E-1,-2.844559318E-1,1.089728040E0,1.184847792E0
1.023665688E1,-4.231577343E-1,-1.001859006E-1,8.829751718E-1,9.842483613E-1
1.024660788E1,-5.089738101E-1,-1.228432766E-1,6.405104345E-1,8.272837643E-1
1.025655788E1,-6.020842874E-1,-7.386524409E-2,4.457010895E-1,7.527356937E-1
1.026650787E1,-6.147341537E-1,-2.956322998E-2,4.065446252E-1,7.375978556E-1
1.027645788E1,-5.307862633E-1,-6.388638586E-2,4.976834214E-1,7.304137975E-1
1.028640788E1,-3.695902222E-1,2.714979172E-2,5.519286257E-1,6.648001590E-1
1.029635788E1,-2.503233951E-1,4.779134005E-2,4.748213929E-1,5.388888285E-1
1.030630787E1,-2.743390793E-1,5.029716432E-2,2.721077818E-1,3.896593128E-1
1.031625788E1,-2.720522332E-1,-1.675081104E-2,1.676975602E-1,3.200241850E-1
1.032620788E1,-3.283878171E-1,-7.639182597E-2,1.606464028E-1,3.734722697E-1
1.033615788E1,-4.529738563E-1,-2.716440976E-2,1.596091068E-1,4.810387579E-1
1.034610787E1,-4.579621160E-1,5.069535971E-3,1.968307275E-1,4.984950703E-1
1.035605788E1,-3.831890917E-1,4.562903970E-2,1.728056878E-1,4.228211146E-1
1.036600788E1,-2.855113542E-1,5.336081296E-2,9.769001663E-2,3.064432233E-1
1.037595788E1,-1.385515290E-1,-2.927554697E-2,7.198039412E-2,1.588545278E-1
1.038590787E1,-5.326053321E-2,-1.037106022E-1,-1.062959486E-1,1.577700926E-1
1.039585888E1,-6.426090002E-2,-1.124723625E-1,-2.224175584E-1,2.573889390E-1
1.040580888E1,-1.016339636E-1,-1.409792930E-1,-1.535870594E-1,2.319344916E-1
1.041575887E1,-1.650780076E-1,-1.387111580E-1,-1.858169121E-1,2.846391729E-1
1.042570888E1,-2.023733032E-1,-1.520872486E-1,-1.797919410E-1,3.105006072E-1
1.043565888E1,-1.974423462E-1,-1.742134050E-1,-2.286904514E-1,3.487593914E-1
1.044560888E1,-1.006989938E-1,-1.335813957E-1,-9.397703469E-2,1.918748542E-1
1.045555887E1,-5.141749084E-2,-1.078387365E-1,-1.153597176E-2,1.200251228E-1
1.046550888E1,-7.455024540E-2,-1.822059640E-1,2.197968364E-3,1.968796167E-1
1.047545888E1,-1.223301834E-1,-1.704644626E-1,-2.130257607E-2,2.108947760E-1
1.048540888E1,-1.828792709E-1,-5.099152118E-2,-2.927408516E-2,1.920987637E-1
1.049535888E1,-1.698002189E-1,1.113953054E-2,-7.322292745E-2,1.852506426E-1
1.050530887E1,-1.529105365E-1,2.835724175E-2,-2.791367197E-1,3.195357157E-1
1.051525888E1,-1.020017534E-1,9.240647256E-2,-4.237956655E-1,4.455850985E-1
1.052520888E1,1.681249917E-2,6.666907579E-2,-4.691028160E-1,4.741148360E-1
1.053515987E1,1.351642370E-1,2.364555538E-2,-5.042831737E-1,5.226184100E-1
1.054510988E1,2.503380132E-1,-5.741907299E-2,-4.931360418E-1,5.560118942E-1
1.055505988E1,2.975460935E-1,-1.605446613E-1,-4.129631138E-1,5.337104078E-1
1.056500988E1,2.554859018E-1,-1.841048473E-1,-3.344589812E-1,4.593805078E-1
1.057495987E1,8.033431113E-2,-2.106441897E-1,-2.500415593E-1,3.366680228E-1
1.058490988E1,-1.091160607E-1,-2.011573747E-1,2.435072958E-2,2.301381371E-1
1.059485988E1,-3.121653020E-1,-1.713605484E-1,2.054565400E-1,4.111252889E-1
1.060480988E1,-4.058733648E-1,-1.160914966E-1,2.732269388E-1,5.028552316E-1
1.061475987E1,-4.062528491E-1,-6.911584318E-2,3.149017990E-1,5.186342836E-1
1.062470988E1,-3.064484793E-1,-8.315880865E-2,2.531832683E-1,4.061130696E-1
1.063465988E1,-1.238335025E-1,-1.343631685E-1,9.167966366E-2,2.044342391E-1
1.064460988E1,-3.243216634E-2,-1.414649042E-1,-1.178342593E-1,1.869467229E-1
1.065455987E1,-3.962950408E-2,-1.309445938E-1,-3.290561539E-1,3.563634895E-1
1.066450988E1,-9.151418746E-2,-1.226631823E-1,-4.197078770E-1,4.467390792E-1
1.067446088E1,-1.671689719E-1,-1.629610232E-1,-3.152882999E-1,3.923117030E-1
1.068441087E1,-2.342511535E-1,-1.537884960E-1,-1.495741153E-1,3.176427559E-1
1.069436088E1,-2.148383975E-1,-1.417350456E-1,1.260074973E-3,2.573828821E-1
1.070431088E1,-8.721356034E-2,-1.758064789E-1,3.857525110E-2,2.000054327E-1
1.071426088E1,6.731723964E-2,-1.979890609E-1,-1.787341797E-1,2.750948672E-1
1.072421088E1,2.653922546E-1,-1.765999460E-1,-3.819079667E-1,4.974678731E-1
1.073416087E1,4.345703298E-1,-1.395742071E-1,-5.239859515E-1,6.949054671E-1
1.074411088E1,5.081435055E-1,-4.280951232E-2,-7.337741089E-1,8.935697619E-1
1.075406088E1,5.545838463E-1,-2.933694273E-2,-8.911413932E-1,1.050027086E0
1.076401088E1,6.026725173E-1,-3.773763746E-2,-8.866986787E-1,1.072787416E0
1.077396087E1,7.877152580E-1,-1.133248866E-2,-7.977888411E-1,1.121200601E0
1.078391088E1,9.454567641E-1,-1.269225866E-2,-8.297801274E-1,1.258008206E0
1.079386088E1,9.862902099E-1,-3.363376915E-2,-8.384404385E-1,1.294944778E0
1.080381187E1,8.998356181E-1,-5.032903165E-2,-8.651031572E-1,1.249256028E0
1.081376188E1,7.203307754E-1,-1.109819072E-1,-9.067943895E-1,1.163387070E0
1.082371150E1,4.666931784E-1,-1.272596785E-1,-7.538955474E-1,8.957432919E-1
1.083366150E1,2.654589128E-1,-1.632142076E-1,-4.205504608E-1,5.234214383E-1
1.084361150E1,1.798743868E-1,-1.868553776E-1,-7.324046910E-2,2.695067596E-1
1.085356150E1,8.683524549E-2,-2.637582502E-1,1.314103246E-1,3.072091271E-1
1.086351150E1,3.082710564E-2,-3.562778664E-1,3.295847422E-1,4.863232781E-1
1.087346150E1,3.071717799E-2,-3.765542561E-1,4.701699328E-1,6.031553851E-1
1.088341150E1,-1.470165431E-2,-3.449924478E-1,3.926598269E-1,5.228935526E-1
1.089336150E1,-1.064772123E-1,-3.691420332E-1,2.489288342E-1,4.577868520E-1
1.090331150E1,-2.951645225E-1,-2.838326186E-1,2.236209154E-2,4.101013459E-1
1.091326150E1,-4.838173342E-1,-1.782339504E-1,-9.583060205E-2,5.244330827E-1
1.092321250E1,-5.764085788E-1,-9.955293953E-2,-9.645683885E-2,5.928419344E-1
1.093316250E1,-6.008253819E-1,-1.244196859E-1,-1.561393690E-1,6.331278704E-1
1.094311250E1,-5.607035422E-1,-2.547740033E-1,-8.466709793E-2,6.216645177E-1
1.095306250E1,-4.808639055E-1,-3.534460598E-1,8.110848248E-2,6.022730268E-1
1.096301250E1,-3.688318384E-1,-3.967560938E-1,1.303829688E-1,5.571822337E-1
1.097296250E1,-2.194717312E-1,-3.475625914E-1,1.326996356E-1,4.319453542E-1
1.098291250E1,-1.359103417E-1,-2.706839848E-1,-5.259862840E-2,3.074216263E-1
1.099286250E1,-7.914674163E-2,-2.269868651E-1,-1.522679275E-1,2.845571391E-1
1.100281250E1,-6.114257991E-2,-1.908273911E-1,-1.959992534E-1,2.803020079E-1
1.101276250E1,-8.435778022E-3,-1.725946033E-1,-2.046233118E-1,2.678259867E-1
1.102271250E1,4.611757457E-2,-2.096454853E-1,-2.165709275E-1,3.049279043E-1
1.103266250E1,7.891460717E-2,-2.829128516E-1,-2.684877706E-1,3.979357734E-1
1.104261250E1,8.731003940E-2,-2.979144681E-1,-2.977706265E-1,4.301667343E-1
1.105256350E1,6.932166517E-2,-2.426749447E-1,-2.434903389E-1,3.506909853E-1
1.106251350E1,-7.392108500E-2,-1.399305949E-1,-2.287208569E-1,2.781332928E-1
1.107246350E1,-2.242126536E-1,-7.440991223E-2,-2.628995866E-1,3.534463774E-1
1.108241350E1,-3.201537681E-1,-1.484763005E-1,-2.705395585E-1,4.446743750E-1
1.109236350E1,-3.271312505E-1,-2.810475898E-1,-8.553540945E-2,4.396804624E-1
1.110231350E1,-2.483593154E-1,-3.335854071E-1,1.278610647E-1,4.350977192E-1
1.111226350E1,-9.202698827E-2,-3.537910455E-1,3.715496242E-2,3.674473591E-1
1.112221350E1,4.918443918E-2,-3.693013698E-1,-2.650121856E-1,4.572024380E-1
1.113216350E1,1.338778496E-1,-3.560068479E-1,-6.588712764E-1,7.607729709E-1
1.114211350E1,2.431400907E-1,-3.066610256E-1,-9.558975524E-1,1.032907653E0
1.115206350E1,3.220617145E-1,-2.356998011E-1,-1.345941920E0,1.403865305E0
1.116201350E1,3.838311160E-1,-2.172284469E-1,-1.750193852E0,1.804908042E0
1.117196450E1,4.838524175E-1,-3.008234578E-1,-2.065992613E0,2.143113015E0
1.118191450E1,6.137886590E-1,-5.412200350E-1,-2.242969705E0,2.387586384E0
1.119186450E1,7.433126718E-1,-6.625351417E-1,-2.291215666E0,2.498226525E0
1.120181450E1,8.731571120E-1,-7.581263003E-1,-2.320727148E0,2.592861995E0
1.121176450E1,1.052855498E0,-7.964948523E-1,-2.405413542E0,2.743888310E0
1.122171450E1,1.130281404E0,-7.585531470E-1,-2.571517151E0,2.909577183E0
1.123166450E1,1.111660361E0,-5.549814570E-1,-2.767675449E0,3.033779914E0
1.124161450E1,9.911463225E-1,-4.100012067E-1,-2.892628693E0,3.085088780E0
1.125156450E1,8.529321778E-1,-4.565991300E-1,-3.049444000E0,3.199231904E0
1.126151450E1,7.377630794E-1,-6.169373846E-1,-3.293587473E0,3.431125842E0
1.127146450E1,6.048090899E-1,-9.029515994E-1,-3.292134440E0,3.466881134E0
1.128141450E1,5.225101143E-1,-1.243087057E0,-3.052803226E0,3.337347717E0
1.129136450E1,5.153911293E-1,-1.592550579E0,-2.826347580E0,3.284826632E0
1.130131550E1,3.289602596E-1,-1.774345776E0,-2.497876148E0,3.081542314E0
1.131126550E1,2.482178128E-1,-1.782839441E0,-2.346984655E0,2.957780507E0
1.132121550E1,2.814492935E-1,-1.764559291E0,-2.581386666E0,3.139496825E0
1.133116550E1,1.815589696E-1,-1.166332996E0,-3.029283093E0,3.251130938E0
1.134111550E1,5.292835289E-1,-1.400849029E0,-3.398529791E0,3.713828725E0
1.135106550E1,9.491931349E-1,-2.301842980E0,-3.205037239E0,4.058535748E0
1.136101550E1,5.659397238E-1,-2.252204213E0,-3.542601092E0,4.235886458E0
1.137096550E1,1.616953933E-1,-2.159280846E0,-3.532018801E0,4.142921190E0
1.138091550E1,-1.020198798E-1,-2.602260057E0,-2.968384342E0,3.948856931E0
1.139086550E1,-1.764303768E-1,-2.780629955E0,-2.762063583E0,3.923267243E0
1.140081550E1,-2.445662266E-1,-2.614411156E0,-3.050956675E0,4.025331659E0
1.141076550E1,1.293567824E-1,-2.731925572E0,-3.363154721E0,4.334854114E0
1.142071650E1,5.098427063E-1,-3.475490259E0,-3.701751777E0,5.103130249E0
1.143066650E1,5.959438339E-1,-4.323558723E0,-4.154900465E0,6.025902999E0
1.144061650E1,7.043117434E-1,-4.950252187E0,-3.846988428E0,6.308753578E0
1.145056650E1,4.253668123E-1,-5.358621728E0,-3.130847182E0,6.220769070E0
1.146051650E1,-5.700073394E-1,-4.859005802E0,-1.629249458E0,5.156481314E0
1.147046650E1,-1.251247724E0,-4.264734564E0,-2.779023725E-1,4.453179931E0
1.148041650E1,-9.236405101E-1,-4.535864106E0,3.225733459E-1,4.640175487E0
1.149036650E1,-3.467241007E-1,-4.513392672E0,1.191794112E0,4.680951209E0
1.150031650E1,-1.270102948E-2,-4.373982772E0,1.029372787E0,4.493494735E0
1.151026650E1,2.543334156E-1,-4.126100004E0,7.957814920E-1,4.209828371E0
1.152021650E1,-9.055027395E-2,-3.965674626E0,1.036418097E0,4.099870372E0
1.153016650E1,-7.453925264E-1,-3.267080875E0,1.212400285E0,3.563613603E0
1.154011750E1,-1.362957025E0,-3.106152636E0,1.932382566E0,3.903836374E0
1.155006750E1,-1.818462141E0,-2.842539105E0,2.802803766E0,4.386632202E0
1.156001750E1,-2.078910867E0,-2.207425066E0,4.028754389E0,5.042366284E0
1.156996750E1,-1.899715634E0,-2.148630728E0,4.430532364E0,5.277797885E0
1.157991750E1,-1.358822751E0,-2.164876631E0,4.612069114E0,5.272975593E0
1.158986750E1,-7.901316199E-1,-1.755261049E0,4.570159196E0,4.958992277E0
1.159981750E1,-4.343197766E-1,-1.446890590E0,4.477234075E0,4.725224969E0
1.160976750E1,-5.102967426E-1,-9.373338121E-1,4.655672970E0,4.776430492E0
1.161971750E1,-7.044006211E-1,-9.261732316E-1,4.544113943E0,4.690730073E0
1.162966750E1,-1.082538011E0,-1.101754593E0,4.096245291E0,4.377782225E0
1.163961750E1,-1.319109632E0,-1.135569625E0,3.629062116E0,4.024880176E0
1.164956750E1,-9.202464938E-1,-1.286154140E0,2.982754751E0,3.376073457E0
1.165951850E1,-1.624303883E-1,-1.099763031E0,2.198136764E0,2.463263605E0
1.166946850E1,5.085867244E-1,-8.601377016E-1,1.501686017E0,1.803762239E0
1.167941850E1,8.449425423E-1,-8.190510714E-1,1.817611663E0,2.165290908E0
1.168936850E1,8.380048209E-1,-6.559242797E-1,2.279067491E0,2.515280773E0
1.169931850E1,5.490675831E-1,-6.246112704E-1,3.029782737E0,3.141846254E0
1.170926850E1,1.401039648E-1,-5.981619751E-1,3.893591321E0,3.941761059E0
1.171921850E1,-1.182646143E-1,-6.122561038E-1,3.983586402E0,4.032096809E0
1.172916850E1,-4.282743403E-1,-6.078858948E-1,3.747474664E0,3.820537990E0
1.173911850E1,-7.071970519E-1,-4.676059288E-1,2.856343796E0,2.979510506E0
1.174906850E1,-8.059784514E-1,-4.580550867E-1,2.452355574E0,2.621729122E0
1.175901850E1,-7.433307981E-1,-4.873940760E-1,2.557948687E0,2.707987287E0
1.176896950E1,-4.824879697E-1,-5.454142427E-1,2.604444577E0,2.704330396E0
1.177891950E1,-3.189618132E-1,-7.533032244E-1,2.806627260E0,2.923415633E0
1.178886950E1,-2.150176147E-1,-9.685251993E-1,3.219962842E0,3.369337374E0
1.179881950E1,-8.454635292E-2,-1.142966353E0,3.692109718E0,3.865901492E0
1.180876950E1,-1.753360704E-1,-1.415269432E0,3.869784383E0,4.124192220E0
1.181872358E1,-2.989760301E-1,-1.411812558E0,3.928485165E0,4.185163923E0
1.182867358E1,-3.875873673E-1,-1.373508033E0,4.459732189E0,4.682516362E0
1.183862358E1,-4.361259815E-1,-1.894956878E0,5.099417582E0,5.457575204E0
1.184857358E1,-2.940535516E-1,-2.490461293E0,5.336122227E0,5.896021147E0
1.185852358E1,-1.780216965E-1,-2.856942551E0,5.160445556E0,5.901187237E0
1.186847358E1,-2.334009683E-1,-3.822326041E0,4.841531982E0,6.172931582E0
1.187842458E1,-4.527326587E-1,-4.365559857E0,4.123048927E0,6.021844583E0
1.188837458E1,-7.816057947E-1,-3.939296667E0,3.406099012E0,5.265973445E0
1.189832458E1,-1.180576229E0,-2.693138652E0,2.951138856E0,4.166050477E0
1.190827458E1,-1.291656370E0,-2.788069367E0,2.274137118E0,3.822748567E0
1.191822458E1,-1.023667951E0,-4.209733315E0,1.718848098E0,4.660921522E0
1.192817458E1,-7.722201365E-1,-4.481915941E0,1.944706743E0,4.946289392E0
1.193812458E1,-7.061226261E-1,-4.493387008E0,2.462066045E0,5.172127723E0
1.194807458E1,-6.788827872E-1,-4.555937598E0,2.792432560E0,5.386569301E0
1.195802458E1,-7.141169393E-1,-5.262140331E0,2.917620570E0,6.059091817E0
1.196797458E1,-4.942692322E-1,-5.605616888E0,2.779135991E0,6.276212204E0
1.197792458E1,-5.422421283E-1,-4.338660327E0,2.031959772E0,4.821499815E0
1.198787458E1,-7.006139642E-1,-3.217525722E0,9.410234052E-1,3.424741852E0
1.199782558E1,-1.297380209E-2,-3.516095079E0,4.656886268E-1,3.546823765E0
1.200777558E1,2.608390278E-1,-4.211300368E0,-1.088627009E0,4.357544785E0
1.201772558E1,6.029479212E-1,-4.275021570E0,-2.109026951E0,4.804929792E0
1.202767558E1,7.354160070E-1,-4.201591067E0,-3.249204767E0,5.362045861E0
1.203762558E1,4.374641168E-1,-4.154428595E0,-3.646372797E0,5.544969466E0
1.204757558E1,2.045133841E-1,-2.899043673E0,-3.464465919E0,4.522035387E0
1.205752558E1,4.959900677E-1,-1.777228161E0,-2.729127679E0,3.294341205E0
1.206747558E1,1.011816815E0,-1.459585187E0,-2.381960945E0,2.971178239E0
1.207742558E1,1.379716022E0,-1.051357441E0,-3.677290535E0,4.065886674E0
1.208737558E1,1.512884020E0,-9.948335767E-1,-6.214102122E0,6.472524785E0
1.209732558E1,1.423482431E0,-1.501348925E0,-8.642049664E0,8.886246295E0
1.210727558E1,1.185703068E0,-1.358550271E0,-1.019638635E1,1.035460502E1
1.211722658E1,8.450314200E-1,-1.239790397E0,-9.627786142E0,9.743994270E0
1.212717658E1,6.068766654E-1,-1.386156145E0,-7.398498922E0,7.551656404E0
1.213712658E1,5.295308661E-1,-1.564678656E0,-5.022622005E0,5.287282293E0
1.214707658E1,4.808147889E-1,-1.670982791E0,-3.614833501E0,4.011282536E0
1.215702658E1,4.422693586E-1,-2.186465429E0,-2.515632972E0,3.362237723E0
1.216697658E1,2.087391669E-1,-1.863572825E0,-2.167998460E0,2.866477461E0
1.217692658E1,3.058362758E-1,-1.682417606E0,-2.281285924E0,2.851022675E0
1.218687658E1,4.024036270E-1,-1.487617616E0,-2.446246988E0,2.891203759E0
1.219682658E1,4.327869290E-1,-1.244433087E0,-2.889296950E0,3.175524381E0
1.220677658E1,3.283895713E-1,-1.085451094E0,-3.167175933E0,3.364081922E0
1.221672658E1,1.637746632E-1,-8.733617646E-1,-2.982488703E0,3.112044630E0
1.222667758E1,1.742458570E-1,-7.088939139E-1,-2.231201599E0,2.347584455E0
1.223662758E1,1.843264568E-1,-6.910379791E-1,-1.465850186E0,1.631020080E0
1.224657758E1,1.658545178E-1,-8.147369957E-1,-9.160043389E-1,1.237080451E0
1.225652758E1,1.218407714E-1,-8.536733124E-1,-3.300501806E-1,9.233289877E-1
1.226647758E1,3.944239318E-2,-6.971228841E-1,9.201821744E-2,7.042750672E-1
1.227642758E1,-7.775042653E-3,-5.818116984E-1,2.548947483E-1,6.352453356E-1
1.228637758E1,-8.604177833E-2,-5.246738765E-1,3.628296715E-1,6.436856646E-1
1.229632758E1,-1.874804449E-1,-4.142685047E-1,4.819877404E-1,6.626307366E-1
1.230627758E1,-1.839358628E-1,-2.790291309E-1,6.231746095E-1,7.071324144E-1
1.231622758E1,-2.159359199E-1,-2.316520661E-1,6.344094497E-1,7.090601886E-1
1.232617758E1,-6.172730148E-2,-1.788929316E-1,7.429273403E-1,7.666511421E-1
1.233612858E1,9.914714277E-2,-6.714445442E-2,6.691758245E-1,6.798049851E-1
1.234607858E1,2.263679373E-1,-2.013722599E-2,4.019142151E-1,4.617174322E-1
1.235602858E1,3.153590512E-1,-5.401394695E-2,1.738429838E-1,3.641294010E-1
1.236597858E1,2.843331403E-1,-4.591964632E-2,3.440033913E-2,2.900643582E-1
1.237592858E1,2.286366570E-1,-8.829383343E-2,1.370815390E-1,2.808235572E-1
1.238587858E1,1.051709443E-1,-1.843279186E-1,2.697618788E-1,3.432334197E-1
1.239582858E1,-5.869844377E-2,-2.452828029E-1,3.071460521E-1,3.974265442E-1
1.240577858E1,-1.866735291E-1,-2.344736400E-1,3.311248988E-1,4.466190692E-1
1.241572858E1,-2.618985432E-1,-1.202763489E-1,2.284191406E-1,3.677397869E-1
1.242567858E1,-1.911829019E-1,3.712981939E-5,2.118650883E-1,2.853729472E-1
1.243562858E1,-3.698071539E-2,6.171794593E-2,1.563691646E-1,1.721278414E-1
1.244557858E1,1.285650694E-1,1.648882654E-1,-1.709667385E-2,2.097842068E-1
1.245552958E1,2.288489109E-1,2.020011279E-1,-7.855792701E-2,3.151945869E-1
1.246547958E1,2.005162275E-1,1.077428421E-1,-1.977534181E-1,3.015322402E-1
1.247542958E1,1.503208047E-1,-6.161357313E-2,-5.455744565E-2,1.713741276E-1
1.248537958E1,-7.160500288E-3,-1.772136113E-1,2.265421844E-1,2.877104414E-1
1.249532958E1,-2.041970497E-1,-2.911460236E-1,3.819296014E-1,5.218550207E-1
1.250527958E1,-3.711578608E-1,-3.322651058E-1,6.275670379E-1,8.012481796E-1
1.251522958E1,-5.069933581E-1,-2.101559472E-1,4.416249955E-1,7.044433433E-1
1.252517958E1,-5.726260149E-1,-5.106753498E-2,1.259823543E-1,5.885405676E-1
1.253512958E1,-5.741696799E-1,2.849582076E-2,-1.959606618E-1,6.073577315E-1
1.254507958E1,-4.211404449E-1,-2.271760225E-2,-4.354877579E-1,6.062383616E-1
1.255502958E1,-3.221997088E-1,-4.577083468E-2,-4.992516446E-1,5.959528726E-1
1.256498058E1,-1.236534083E-1,-1.872614667E-1,-9.121773362E-2,2.422347977E-1
1.257493058E1,5.759916723E-2,-2.563068509E-1,3.764963686E-2,2.653834227E-1
1.258488058E1,1.531894487E-1,-2.847570634E-1,-7.057004571E-2,3.309587946E-1
1.259483058E1,1.683343220E-1,-2.939225739E-1,-1.350782830E-1,3.646547215E-1
1.260478058E1,1.849866074E-1,-2.917880479E-1,-3.459247863E-1,4.889010816E-1
1.261473058E1,1.507850736E-1,-2.544556224E-1,-6.244773692E-1,6.909817558E-1
1.262468058E1,6.918191671E-2,-1.365514889E-1,-8.014942217E-1,8.159812707E-1
1.263463058E1,-7.161085010E-3,-1.935925394E-2,-9.556163013E-1,9.558392005E-1
1.264458058E1,-4.378102720E-2,8.935598016E-2,-9.672873437E-1,9.723919348E-1
1.265453058E1,-2.275560915E-2,1.374168769E-1,-8.184739512E-1,8.302414255E-1
1.266448058E1,-6.570516229E-3,1.399966684E-1,-6.892528242E-1,7.033574443E-1
1.267443058E1,1.784043968E-2,1.427948534E-1,-4.710002375E-1,4.924935280E-1
1.268438158E1,8.253403366E-2,7.885642737E-2,5.911535025E-4,1.141514446E-1
1.269433158E1,1.088353944E-1,-4.818661183E-2,2.485873568E-1,2.756134369E-1
1.270428158E1,5.076377213E-2,-1.568641314E-1,3.830867654E-1,4.170596913E-1
1.271423158E1,-7.928473592E-2,-2.195626554E-1,4.827344298E-1,5.362148438E-1
1.272418158E1,-1.898748797E-1,-2.037003288E-1,4.906503904E-1,5.641667302E-1
1.273413158E1,-2.826304311E-1,-1.321573064E-1,3.797965372E-1,4.915189964E-1
1.274408158E1,-3.264664221E-1,-2.215393066E-2,1.615439504E-1,3.649213193E-1
1.275403158E1,-3.652077341E-1,8.993017673E-2,-1.252169538E-1,3.964131825E-1
1.276398158E1,-4.245248133E-1,1.226342386E-1,-3.206443495E-1,5.459608708E-1
1.277393158E1,-4.123017937E-1,1.065929872E-1,-3.805800641E-1,5.711357274E-1
1.278388158E1,-3.641990894E-1,-1.100124389E-2,-3.268400592E-1,4.894756668E-1
1.279383258E1,-2.909264606E-1,-1.472375679E-1,-2.138969958E-1,3.899602950E-1
1.280378258E1,-1.968102622E-1,-2.282606810E-1,-2.248079002E-2,3.022293893E-1
1.281373258E1,-7.097993553E-2,-3.474395075E-1,-1.043961883E-2,3.547694298E-1
1.282367933E1,3.490670800E-2,-5.039826268E-1,-1.410974067E-1,5.245240171E-1
1.283362933E1,3.740873158E-2,-4.437533820E-1,-3.704059088E-1,5.792383054E-1
1.284357933E1,1.184938252E-2,-2.953589424E-1,-6.327769071E-1,6.984152969E-1
1.285352933E1,-5.781726837E-3,-2.191457489E-1,-7.148051566E-1,7.476661685E-1
1.286347933E1,-2.529505491E-2,-1.745616066E-1,-6.990434021E-1,7.209530306E-1
1.287342933E1,1.794685900E-2,-1.266927910E-1,-4.839179063E-1,5.005493912E-1
1.288337933E1,1.019567299E-1,-1.649730501E-1,-3.569988281E-1,4.062750857E-1
1.289332933E1,2.190092164E-1,-2.074355301E-1,-3.229288566E-1,4.419022318E-1
1.290327933E1,3.367411494E-1,-2.481920850E-1,-3.133745062E-1,5.226829765E-1
1.291323033E1,3.735002553E-1,-2.483137071E-1,-2.436517221E-1,5.104197288E-1
1.292318033E1,3.196702033E-1,-2.289933372E-1,-1.236177403E-1,4.121993851E-1
1.293313033E1,2.409391987E-1,-1.375586718E-1,1.103767204E-1,2.985918721E-1
1.294308033E1,1.430807823E-1,-8.588682711E-3,3.659930152E-1,3.930607623E-1
1.295303033E1,8.223231733E-2,5.071757913E-2,4.238547224E-1,4.347266412E-1
1.296298033E1,5.431829453E-2,2.482143044E-4,2.389312649E-1,2.450279332E-1
1.297293033E1,1.973552227E-2,-4.087320685E-2,4.513524234E-2,6.401015528E-2
1.298288033E1,-2.039625764E-2,-1.100519076E-1,-4.712037206E-2,1.214403523E-1
1.299283033E1,-4.541824758E-2,-1.930370539E-1,-1.719139874E-2,1.990519168E-1
1.300278033E1,-1.031676883E-1,-1.899418303E-1,-6.217929125E-3,2.162409153E-1
1.301273133E1,-2.170059603E-1,-1.570430562E-1,-7.749490321E-2,2.788540269E-1
1.302268133E1,-2.527996910E-1,-1.323224902E-1,-7.569513023E-2,2.952061617E-1
1.303263133E1,-2.043935162E-1,-2.087257183E-1,-1.506698835E-1,3.287013062E-1
1.304258133E1,-1.423440331E-1,-2.110999802E-1,-8.000335872E-2,2.668811773E-1
1.305253133E1,-7.709436893E-2,-2.102147117E-1,-1.359810930E-1,2.619630211E-1
1.306248133E1,1.198503792E-2,-2.988675642E-1,-3.137370336E-1,4.334701700E-1
1.307243133E1,7.390529752E-2,-3.363026083E-1,-5.108110052E-1,6.160270452E-1
1.308238133E1,1.109035546E-1,-2.969309664E-1,-6.167555362E-1,6.934370834E-1
1.309233133E1,1.287644595E-1,-3.083321598E-1,-5.732534212E-1,6.635273104E-1
1.310228133E1,1.170595032E-1,-3.172064790E-1,-4.337347627E-1,5.499533816E-1
1.311223133E1,8.604587138E-2,-3.011324832E-1,-3.007760954E-1,4.342245087E-1
1.312218133E1,7.587756336E-2,-2.889986336E-1,-2.299207056E-1,3.770161080E-1
1.313213133E1,1.128576940E-1,-2.865968898E-1,-3.114601278E-1,4.380434311E-1
1.314208233E1,1.927996570E-1,-2.722615635E-1,-5.277322626E-1,6.243391768E-1
1.315203233E1,2.474044651E-1,-2.238787776E-1,-5.778627813E-1,6.672751085E-1
1.316198233E1,2.687918258E-1,-2.042335948E-1,-5.207939565E-1,6.206341531E-1
1.317193233E1,2.247289628E-1,-2.370931926E-1,-3.216769677E-1,4.584674037E-1
1.318188233E1,1.218378478E-1,-2.494311100E-1,-3.081190288E-2,2.793021897E-1
1.319183233E1,-3.087914586E-2,-2.740578282E-1,2.450837052E-1,3.689542484E-1
1.320178233E1,-1.205222243E-1,-3.309728712E-1,3.521801376E-1,4.980958717E-1
1.321173233E1,-1.302742106E-1,-3.393785360E-1,2.523745984E-1,4.425405050E-1
1.322168233E1,-7.953675091E-2,-3.356450889E-1,2.881449401E-2,3.461415830E-1
1.323163233E1,1.553195894E-2,-2.840340552E-1,-2.417040145E-1,3.732792747E-1
1.324158233E1,1.085857183E-1,-2.764698046E-1,-5.283380342E-1,6.061084799E-1
1.325153333E1,1.077326095E-1,-2.339465135E-1,-7.509415340E-1,7.938831614E-1
1.326148333E1,6.646880865E-2,-1.798761410E-1,-9.351644951E-1,9.546235706E-1
1.327143333E1,1.862104297E-2,-1.933279529E-1,-9.804231137E-1,9.994758239E-1
1.328138333E1,-8.693640232E-3,-2.277668837E-1,-1.000125307E0,1.025769936E0
1.329133333E1,9.498158634E-2,-2.528482229E-1,-1.093606498E0,1.126467442E0
1.330128333E1,2.289863205E-1,-3.371712121E-1,-1.423595282E0,1.480791238E0
1.331123333E1,3.609228945E-1,-5.172812417E-1,-1.797170967E0,1.904643983E0
1.332118333E1,4.902972186E-1,-6.820858920E-1,-1.968723596E0,2.140445076E0
1.333113333E1,5.393974578E-1,-8.861885092E-1,-1.902436636E0,2.166920591E0
1.334108333E1,5.273896158E-1,-8.614211655E-1,-1.619527293E0,1.908678832E0
1.335103333E1,5.633131546E-1,-7.023403546E-1,-1.420026727E0,1.681392158E0
1.336098433E1,6.318705887E-1,-5.788366351E-1,-1.560254068E0,1.780085685E0
1.337093433E1,7.783193672E-1,-5.247987145E-1,-1.889183922E0,2.109552232E0
1.338088433E1,9.955913758E-1,-4.581094658E-1,-2.413252904E0,2.650444500E0
1.339083433E1,1.214712859E0,-5.787816712E-1,-3.199774745E0,3.471177606E0
1.340078433E1,1.207431906E0,-8.435745862E-1,-3.900791582E0,4.169614474E0
1.341073433E1,9.443715209E-1,-1.016551013E0,-4.120742201E0,4.348071965E0
1.342068433E1,7.078235811E-1,-1.232773739E0,-3.640439043E0,3.908137886E0
1.343063433E1,4.917274475E-1,-1.352938698E0,-2.897935626E0,3.235779643E0
1.344058433E1,3.463586497E-1,-1.547113620E0,-2.420304646E0,2.893337078E0
1.345053433E1,1.685582703E-1,-1.223876030E0,-2.144400267E0,2.474820586E0
1.346048433E1,3.309950906E-1,-1.192284109E0,-2.446317154E0,2.741453404E0
1.347043533E1,5.986765301E-1,-1.243144945E0,-3.366836128E0,3.638599793E0
1.348038533E1,9.688345170E-1,-1.487472020E0,-4.671016649E0,4.996960063E0
1.349033533E1,1.161045359E0,-2.066415367E0,-5.682237048E0,6.156778107E0
1.350028533E1,1.047580140E0,-2.602141358E0,-5.997373905E0,6.620955939E0
1.351023533E1,5.267709804E-1,-2.938556233E0,-5.567223485E0,6.317165324E0
1.352018533E1,2.096519172E-1,-3.242016200E0,-4.731870961E0,5.739793181E0
1.353013533E1,6.782945573E-2,-3.477513980E0,-3.841794931E0,5.182382908E0
1.354008533E1,2.804845029E-1,-3.666257424E0,-3.425667596E0,5.025466499E0
1.355003533E1,5.997810692E-1,-3.752364106E0,-3.386788582E0,5.090217148E0
1.355998533E1,1.022610775E0,-4.471083389E0,-3.611646184E0,5.837834155E0
1.356993533E1,1.153202489E0,-5.351158342E0,-3.532656147E0,6.514939066E0
1.357988533E1,8.035267138E-1,-6.096964266E0,-3.507072240E0,7.079419760E0
1.358983633E1,-1.929671797E-1,-5.991005117E0,-2.078119154E0,6.344127825E0
1.359978633E1,-6.944530454E-1,-5.375338333E0,-1.049414338E0,5.520670039E0
1.360973633E1,-1.078906305E0,-5.591946682E0,-6.232649490E-2,5.695418431E0
1.361968633E1,-1.321917757E0,-5.899451169E0,6.246042538E-1,6.077920789E0
1.362963633E1,-1.405628251E0,-5.829772239E0,1.199176222E0,6.115558744E0
1.363958633E1,-1.657395908E0,-5.559345531E0,1.875152358E0,6.096677809E0
1.364953633E1,-2.136738953E0,-4.729940795E0,3.008533371E0,5.999105460E0
1.365948633E1,-2.238897119E0,-4.080841386E0,3.990728191E0,6.131218331E0
1.366943633E1,-1.843989330E0,-3.929692615E0,4.707171738E0,6.403143483E0
1.367938633E1,-1.514255192E0,-3.496743134E0,5.130110786E0,6.390478699E0
1.368933633E1,-1.104748659E0,-2.943144543E0,5.268387496E0,6.135020473E0
1.369928733E1,-8.640243459E-1,-2.558611761E0,5.310903186E0,5.958080636E0
1.370923733E1,-6.763866109E-1,-2.066049916E0,5.284887754E0,5.714551572E0
1.371918733E1,-6.021348658E-1,-1.688760665E0,5.121269796E0,5.426037532E0
1.372913733E1,-6.054253864E-1,-1.299107476E0,5.393020898E0,5.580223520E0
1.373908733E1,-4.671817133E-1,-1.173887014E0,5.481045467E0,5.624778119E0
1.374903733E1,-3.166413456E-1,-1.137851794E0,5.306945790E0,5.436786005E0
1.375898733E1,-1.884010890E-1,-1.029419273E0,5.150948508E0,5.256183934E0
1.376893733E1,-6.662902236E-3,-1.007254232E0,4.611175659E0,4.719909580E0
1.377888733E1,1.538256258E-1,-1.103760188E0,4.314310766E0,4.455920361E0
1.378883733E1,3.032564843E-1,-1.184285703E0,4.282558047E0,4.453627796E0
1.379878733E1,5.712025103E-1,-1.242830949E0,4.376928599E0,4.585673891E0
1.380873733E1,8.819837764E-1,-1.323344185E0,4.242107593E0,4.530409700E0
1.381868871E1,1.069715067E0,-1.286175774E0,4.061896407E0,4.392896638E0
1.382863871E1,1.166649916E0,-1.123914371E0,3.999882007E0,4.315473509E0
1.383858871E1,1.173775625E0,-1.121977188E0,3.867440526E0,4.194481881E0
1.384853871E1,9.409561622E-1,-1.242504675E0,3.816339077E0,4.122336755E0
1.385848871E1,5.226296899E-1,-1.329165089E0,3.917284824E0,4.169525394E0
1.386843871E1,2.006501287E-2,-1.487032310E0,3.820203502E0,4.099466123E0
1.387838871E1,-2.718051884E-1,-1.635580239E0,3.894702877E0,4.232931759E0
1.388833871E1,-4.588766205E-1,-1.755681463E0,4.189791970E0,4.565888950E0
1.389828871E1,-5.984490734E-1,-2.024071586E0,4.583699008E0,5.046315852E0
1.390823871E1,-6.485883629E-1,-2.357852290E0,5.051491463E0,5.612281202E0
1.391818871E1,-6.819797650E-1,-2.664508930E0,5.328421444E0,5.996397195E0
1.392813971E1,-7.048017401E-1,-3.110222883E0,5.209512466E0,6.108129993E0
1.393808971E1,-8.279768461E-1,-3.394005800E0,4.611268045E0,5.785206480E0
1.394803971E1,-9.797655943E-1,-3.664311470E0,4.266306295E0,5.708632812E0
1.395798971E1,-1.182025461E0,-4.021634234E0,4.054440622E0,5.831742009E0
1.396793971E1,-1.366070667E0,-4.228791144E0,3.828333471E0,5.865574207E0
1.397788971E1,-1.304078194E0,-4.973026507E0,3.766516707E0,6.373245694E0
1.398783971E1,-1.231637040E0,-5.374831379E0,3.689860879E0,6.634818419E0
1.399778971E1,-1.180984365E0,-5.648379330E0,3.591041765E0,6.796653153E0
1.400773971E1,-1.181450973E0,-6.227039087E0,2.642342720E0,6.866863712E0
1.401768971E1,-9.778953624E-1,-5.711898803E0,2.362114618E0,6.257927192E0
1.402763971E1,-7.095368153E-1,-5.284495406E0,1.977735325E0,5.686894689E0
1.403759071E1,-3.041704041E-1,-6.363681500E0,5.249533734E-1,6.392537674E0
1.404754071E1,-1.579028893E-1,-6.584050194E0,-2.754912731E-1,6.591702794E0
1.405749071E1,2.704536045E-1,-5.672727136E0,-2.059254867E-1,5.682902746E0
1.406744071E1,7.926216567E-1,-4.931427076E0,3.133476090E-1,5.004538822E0
1.407739071E1,1.018635837E0,-4.075369561E0,-1.709638149E-1,4.204222242E0
1.408734071E1,1.177345642E0,-3.261594433E0,-1.369243659E0,3.728132133E0
1.409729071E1,1.272602048E0,-3.296744969E0,-2.410650893E0,4.277765900E0
1.410724071E1,1.108785869E0,-3.108517250E0,-3.210894395E0,4.604576899E0
1.411719071E1,9.816615540E-1,-3.033689262E0,-5.395225298E0,6.267007736E0
1.412714071E1,7.707179868E-1,-2.931469992E0,-6.675418201E0,7.331352583E0
1.413709071E1,6.609259880E-1,-2.449695383E0,-7.154105773E0,7.590721971E0
1.414704171E1,8.040096939E-1,-2.034236385E0,-7.310964350E0,7.631169568E0
1.415699171E1,1.137061250E0,-1.328004416E0,-7.204560812E0,7.413649608E0
1.416694171E1,1.625053496E0,-1.218564420E0,-7.041841571E0,7.328931084E0
1.417689171E1,2.117921151E0,-1.777590396E0,-7.107554920E0,7.626450980E0
1.418684171E1,2.081021712E0,-1.852637801E0,-7.872215776E0,8.350730471E0
1.419679171E1,1.709105467E0,-1.363490729E0,-8.690536530E0,8.961337715E0
1.420674171E1,1.385699478E0,-1.353498130E0,-8.606815512E0,8.822096887E0
1.421669171E1,1.127291138E0,-1.509001176E0,-7.130677149E0,7.375257722E0
1.422664171E1,9.353077519E-1,-1.703679836E0,-5.636629350E0,5.962291171E0
1.423659171E1,7.822492808E-1,-1.994527651E0,-4.457390964E0,4.945542306E0
1.424654171E1,6.794698477E-1,-2.318219570E0,-3.223919068E0,4.028582307E0
1.425649171E1,6.965407938E-1,-2.501642339E0,-1.801541761E0,3.160527833E0
1.426644271E1,7.378279835E-1,-2.643493452E0,-4.877069020E-1,2.787526823E0
1.427639271E1,6.745254421E-1,-2.404516287E0,2.446913570E-1,2.509294125E0
1.428634271E1,5.131873137E-1,-2.010068527E0,4.313151848E-1,2.118907618E0
1.429629271E1,2.479681367E-1,-1.573609693E0,2.696080971E-1,1.615680720E0
1.430624271E1,4.047793508E-2,-1.015448374E0,1.047821045E-3,1.016255362E0
1.431619271E1,-6.416032791E-2,-5.259080775E-1,-1.305168700E-1,5.456468703E-1
1.432614271E1,-7.482097149E-2,-1.113394645E-1,-1.944450635E-1,2.362277224E-1
1.433609271E1,-4.434762239E-2,1.389595185E-1,-3.468223339E-1,3.762475126E-1
1.434604271E1,-3.270347714E-2,1.868392977E-1,-3.249572557E-1,3.762654098E-1
1.435599271E1,2.494539142E-2,1.092213106E-1,5.852419674E-2,1.263987692E-1
1.436594271E1,5.494920909E-2,1.035588670E-1,5.197613382E-1,5.328186401E-1
1.437589371E1,-8.695979118E-3,1.446900822E-1,7.877240288E-1,8.009494276E-1
1.438584371E1,-2.949452519E-2,1.528161040E-1,1.056517609E0,1.067919541E0
1.439579371E1,3.355307758E-2,9.144577503E-2,1.296565107E0,1.300218911E0
1.440574371E1,7.261657119E-2,6.219756380E-2,1.309254735E0,1.312741278E0
1.441569371E1,3.874715924E-2,5.528089240E-2,1.112463768E0,1.114510186E0
1.442564371E1,2.155283689E-3,-1.852266356E-2,6.566148359E-1,6.568795757E-1
1.443559371E1,-1.077016193E-1,-3.371285275E-2,1.571842664E-1,1.935021676E-1
1.444554371E1,-2.035497630E-1,1.822650209E-2,-9.054238021E-2,2.235232292E-1
1.445549371E1,-2.673358691E-1,2.084707797E-2,-1.769554567E-1,3.212729388E-1
1.446544371E1,-3.570994002E-1,1.924128637E-2,-2.214814192E-1,4.206473912E-1
1.447539371E1,-3.281334633E-1,-5.399582058E-2,-2.150664389E-2,3.332411350E-1
1.448534471E1,-1.949099171E-1,-2.383585301E-1,1.619795680E-1,3.479109730E-1
1.449529471E1,-1.019859660E-1,-3.533383249E-1,2.012354350E-1,4.192192856E-1
1.450524471E1,-5.911710441E-2,-3.053698142E-1,2.272350794E-1,3.852029813E-1
1.451519471E1,-8.631484330E-2,-2.357704063E-1,1.484865332E-1,2.916953671E-1
1.452514471E1,-1.184979182E-1,-1.015494713E-1,-7.342524111E-2,1.724683095E-1
1.453509471E1,-5.023810744E-2,2.228125378E-2,-1.940410209E-1,2.016735964E-1
1.454504471E1,-5.745474100E-3,8.949105084E-2,-2.816030753E-1,2.955367163E-1
1.455499471E1,1.046768546E-2,1.731508197E-1,-3.207577854E-1,3.646592049E-1
1.456494471E1,4.545625448E-2,1.475714439E-1,-3.422194058E-1,3.754433697E-1
1.457489471E1,3.520257711E-2,1.255060986E-1,-3.295543367E-1,3.543967593E-1
1.458484571E1,3.307243645E-2,9.851842090E-2,-2.045186466E-1,2.294069356E-1
1.459479571E1,8.993017673E-2,5.181130081E-2,1.103778899E-2,1.043727951E-1
1.460474571E1,1.905625123E-1,-5.637198284E-2,1.707030290E-1,2.619759448E-1
1.461469571E1,1.612977827E-1,-8.089272022E-2,2.506081545E-1,3.088123281E-1
1.462464571E1,8.342105627E-2,-2.266790092E-2,2.649209690E-1,2.786683085E-1
1.463459571E1,2.502023578E-3,-1.937474906E-2,1.756345707E-1,1.767176942E-1
1.464454571E1,-7.733644366E-2,-5.270884842E-2,1.124448806E-1,1.462976397E-1
1.465449571E1,-1.164122164E-1,-7.000578940E-2,4.953819573E-2,1.445913120E-1
1.466444571E1,-8.665573597E-2,-2.803199038E-2,3.329580009E-2,9.697226080E-2
1.467439571E1,-9.030849159E-2,-1.779702410E-2,5.493459105E-3,9.220919592E-2
1.468434571E1,-9.037924290E-2,-4.459422871E-2,-2.591485977E-1,2.780558370E-1
1.469429571E1,-1.085091197E-1,-1.436453310E-1,-3.557188725E-1,3.986779734E-1
1.470424671E1,-1.553722143E-1,-2.514796820E-1,-2.973414409E-1,4.192785326E-1
1.471419671E1,-2.056980300E-1,-3.017139888E-1,-1.644856846E-1,4.004978789E-1
1.472414671E1,-2.256592548E-1,-3.158246358E-1,-1.191095370E-1,4.060226369E-1
1.473409671E1,-2.101044917E-1,-3.139634670E-1,-1.978042889E-1,4.264311114E-1
1.474404671E1,-1.287983733E-1,-1.901935530E-1,-3.450541359E-1,4.145177503E-1
1.475399671E1,-3.401208401E-2,-1.098134874E-1,-5.276258433E-1,5.400044948E-1
1.476394671E1,4.036332965E-2,-1.720467192E-1,-7.712956917E-1,7.912814392E-1
1.477389671E1,5.347161770E-2,-1.720974438E-1,-8.936440015E-1,9.116338878E-1
1.478384671E1,2.285501182E-2,-1.871445224E-1,-6.395924217E-1,6.668012370E-1
1.479379671E1,3.067624748E-2,-2.786892615E-1,-3.402301830E-1,4.408688173E-1
1.480374771E1,6.894744337E-2,-3.118401968E-1,-1.653171587E-1,3.596217753E-1
1.481369771E1,9.661997616E-2,-2.525836363E-1,-7.643597245E-2,2.810273493E-1
1.482364708E1,1.389965022E-1,-1.940692337E-1,8.459166884E-3,2.388607389E-1
1.483359708E1,1.294526768E-1,-1.358584477E-1,6.690968871E-3,1.877772148E-1
1.484354708E1,1.319815975E-1,-1.253871077E-1,-1.079045177E-2,1.823663969E-1
1.485349708E1,1.185897195E-1,-1.016541365E-1,5.042287946E-2,1.641327262E-1
1.486344708E1,6.762012541E-2,-4.690636396E-3,1.491297269E-1,1.638113515E-1
1.487339708E1,-1.385029972E-2,8.057024628E-2,1.565293783E-1,1.765923035E-1
1.488334708E1,-1.122630322E-1,1.385763797E-1,7.881695867E-2,1.949833695E-1
1.489329708E1,-1.848456895E-1,1.853067425E-1,-1.319166934E-1,2.931015724E-1
1.490324708E1,-2.340429926E-1,2.015453374E-1,-2.764522630E-1,4.145147755E-1
1.491319808E1,-2.971157384E-1,9.962252140E-2,-3.902361560E-1,5.004864296E-1
1.492314808E1,-3.301215166E-1,-1.253333133E-1,-4.000395977E-1,5.335919180E-1
1.493309808E1,-3.206636453E-1,-3.226250938E-1,-1.032138813E-1,4.664388811E-1
1.494304808E1,-3.764788270E-1,-3.302001616E-1,1.795791024E-1,5.319935225E-1
1.495299808E1,-4.677813452E-1,-3.042028561E-1,3.069618648E-1,6.368550472E-1
1.496294808E1,-5.099584812E-1,-2.866541925E-1,2.539282036E-1,6.377364747E-1
1.497289808E1,-3.966259933E-1,-3.009620368E-1,2.121773297E-1,5.412111837E-1
1.498284808E1,-2.075381488E-1,-3.055716893E-1,2.976232767E-3,3.693981571E-1
1.499279808E1,3.926990032E-3,-2.866641328E-1,-4.517161202E-1,5.350132704E-1
1.500274808E1,1.989170140E-1,-3.701761132E-1,-9.804897720E-1,1.066751389E0
1.501269808E1,2.757219458E-1,-3.507428920E-1,-1.316415235E0,1.389961236E0
1.502264908E1,2.597233790E-1,-3.207022369E-1,-1.368813888E0,1.429670458E0
1.503259908E1,2.480722171E-1,-3.725910133E-1,-1.041117212E0,1.133264725E0
1.504254908E1,2.281326270E-1,-3.945835608E-1,-5.236970991E-1,6.942617184E-1
1.505249908E1,1.100714958E-1,-4.020639038E-1,-1.066497052E-1,4.302851108E-1
1.506244908E1,2.619143307E-2,-4.459609982E-1,1.623099357E-1,4.753017130E-1
1.507239908E1,2.961088479E-2,-4.711180589E-1,2.491334867E-1,5.337569897E-1
1.508234908E1,5.297226548E-2,-4.307573605E-1,2.229432231E-1,4.879156128E-1
1.509229908E1,1.052504665E-1,-3.573479068E-1,6.877085745E-2,3.788200338E-1
1.510224908E1,4.020077705E-2,-1.985536095E-1,-1.689775157E-1,2.638049263E-1
1.511219908E1,-2.415543258E-2,-7.775159597E-2,-1.682384276E-1,1.869036226E-1
1.512214908E1,-1.093826938E-1,-1.636050940E-3,-3.299876153E-2,1.142635927E-1
1.513210008E1,-1.245515406E-1,5.090966016E-2,1.706913346E-1,2.173485944E-1
1.514205008E1,-9.079439521E-2,4.168187678E-2,3.054918748E-1,3.214129534E-1
1.515200008E1,1.687740326E-2,-6.583555520E-2,2.974987310E-1,3.051633366E-1
1.516195008E1,8.475246727E-2,-1.415096354E-1,8.011211693E-2,1.833736865E-1
1.517190008E1,1.122507530E-1,-1.180666861E-1,-4.475400388E-2,1.689464258E-1
1.518185008E1,1.508254194E-1,-4.423243225E-2,-1.131050313E-1,1.936428757E-1
1.519180008E1,1.512709773E-1,-9.489446282E-3,-4.476920664E-2,1.580418932E-1
1.520175008E1,8.855432689E-2,-1.286124319E-2,9.995230436E-3,9.003990792E-2
1.521170008E1,-2.267433286E-2,-3.688365161E-2,-2.945593357E-2,5.236583953E-2
1.522165008E1,-9.549029410E-2,-4.902627200E-2,-1.252304024E-1,1.649382469E-1
1.523160108E1,-4.112580657E-2,-1.144025284E-1,-2.715441102E-1,2.975155025E-1
1.524155108E1,1.022993767E-1,-1.450232273E-1,-5.159618175E-1,5.456312822E-1
1.525150108E1,3.214992124E-1,-4.771357208E-2,-7.210265940E-1,7.908967555E-1
1.526145108E1,5.588113832E-1,6.930266172E-2,-1.027608975E0,1.171773539E0
1.527140108E1,6.989679730E-1,1.404849109E-1,-1.496365051E0,1.657528462E0
1.528135108E1,7.383214885E-1,1.299941289E-1,-1.802463282E0,1.952150347E0
1.529130108E1,6.624404168E-1,1.633507401E-2,-1.673192453E0,1.799629719E0
1.530125108E1,5.118161416E-1,-1.107638061E-1,-1.303036221E0,1.404324669E0
1.531120108E1,3.634541541E-1,-1.987448135E-1,-9.582574886E-1,1.043961607E0
1.532115108E1,3.740522325E-1,-2.644835973E-1,-7.512806726E-1,8.799370971E-1
1.533110208E1,5.655514687E-1,-4.193359941E-1,-9.380278766E-1,1.172854397E0
1.534105208E1,4.375529945E-1,2.772802287E-1,-1.001071971E0,1.127156617E0
1.535100208E1,5.953284144E-1,1.967588067E-4,-1.156741809E0,1.300948720E0
1.536095208E1,4.788735133E-1,-2.481417990E-1,-7.681855577E-1,9.386177312E-1
1.537090208E1,2.259001601E-1,-3.342452654E-1,-3.140492749E-1,5.112511387E-1
1.538085208E1,-1.105959910E-1,-5.242268568E-1,5.515152276E-2,5.385972160E-1
1.539080208E1,-4.541643494E-1,-5.959555283E-1,6.202527559E-1,9.726981696E-1
1.540075208E1,-6.969799197E-1,-7.368862894E-1,1.047157386E0,1.457848073E0
1.541070208E1,-8.183967680E-1,-8.325233486E-1,1.427925730E0,1.844407842E0
1.542065208E1,-8.919775450E-1,-6.413196892E-1,1.638015019E0,1.972310343E0
1.543060208E1,-8.220197028E-1,-4.194839287E-1,1.469235724E0,1.735032211E0
1.544055308E1,-6.840160578E-1,-3.975489762E-1,1.030363598E0,1.299065934E0
1.545050308E1,-6.104838127E-1,-3.833417040E-1,5.036130828E-1,8.793562900E-1
1.546045308E1,-5.776698232E-1,-4.158262029E-1,2.903592807E-1,7.687147504E-1
1.547040308E1,-6.035279649E-1,-4.063829497E-1,3.583314085E-1,8.110453160E-1
1.548035308E1,-5.933368528E-1,-2.718677536E-1,4.631906962E-1,8.003163858E-1
1.549030308E1,-4.143044651E-1,-1.729109377E-1,4.744699752E-1,6.531983922E-1
1.550025308E1,-1.955180275E-1,-4.832402140E-2,2.444130296E-1,3.167021300E-1
1.551020308E1,-1.289603412E-2,-1.020251423E-2,-9.036053181E-2,9.184456816E-2
1.552015308E1,1.484286457E-1,1.582373500E-2,-3.696557111E-1,3.986562406E-1
1.553010308E1,2.615330923E-1,-6.528211623E-2,-5.186550450E-1,5.845206316E-1
1.554005408E1,2.470618182E-1,-1.685620710E-1,-5.084651023E-1,5.899063265E-1
1.555000408E1,1.612615299E-1,-2.226157790E-1,-2.642099476E-1,3.812741304E-1
1.555995408E1,4.078257501E-2,-2.123425135E-1,5.818739712E-2,2.239159098E-1
1.556990408E1,-8.426539421E-2,-1.566296580E-1,3.394443172E-1,3.832178896E-1
1.557985408E1,-1.455839753E-1,-1.542849246E-1,4.372840226E-1,4.860204195E-1
1.558980408E1,-1.162783152E-1,-1.560890830E-1,3.282018757E-1,3.815768856E-1
1.559975408E1,-1.081734896E-2,-4.580328673E-2,1.072326726E-1,1.171059443E-1
1.560970408E1,1.091207385E-2,-1.104860634E-2,-4.455899924E-1,4.458605010E-1
1.561965408E1,4.999544799E-2,6.706522465E-2,-1.008675106E0,1.012137717E0
1.562960408E1,1.829640555E-1,1.499571079E-1,-1.434026715E0,1.453408270E0
1.563955508E1,4.136127394E-1,1.219471908E-1,-1.632836725E0,1.688816860E0
1.564950508E1,8.648312616E-1,1.731261152E-1,-2.085645690E0,2.264469851E0
1.565945508E1,1.349903993E0,3.162232697E-2,-3.207868461E0,3.480468478E0
1.566940508E1,1.984107036E0,-7.523764408E-1,-4.611487901E0,5.076275376E0
1.567935508E1,1.935030770E0,-5.241026035E-1,-5.579282783E0,5.928526292E0
1.568930508E1,9.476751977E-1,-7.468186623E-1,-6.312897263E0,6.427168758E0
1.569925508E1,9.732012177E-1,-1.394777572E0,-5.717134400E0,5.964742311E0
1.570920508E1,8.468937582E-1,-1.266084741E0,-4.181970735E0,4.450739134E0
1.571915508E1,1.540741324E-1,-9.706322435E-1,-4.059353453E0,4.176627377E0
1.572910508E1,3.933743566E-1,-1.190586662E0,-4.280599229E0,4.460467436E0
1.573905608E1,3.405190355E-1,-1.146951231E0,-4.477881947E0,4.634962467E0
1.574900608E1,5.117681944E-1,-1.186069103E0,-5.116242360E0,5.276798507E0
1.575895608E1,8.203649408E-1,-1.727311943E0,-5.720895914E0,6.032019168E0
1.576890608E1,1.146758273E0,-2.200463955E0,-5.803100165E0,6.311344363E0
1.577885608E1,9.295067292E-1,-2.687504860E0,-5.926151310E0,6.573122125E0
1.578880608E1,5.727090454E-1,-3.359459866E0,-5.954202742E0,6.860502644E0
1.579875608E1,6.808170462E-1,-4.075777697E0,-5.404915888E0,6.803571962E0
1.580870608E1,5.945062959E-1,-4.772568167E0,-4.509502812E0,6.592909847E0
1.581865608E1,4.390808719E-1,-5.257796434E0,-4.029975872E0,6.639120490E0
1.582860596E1,2.216106427E-1,-5.691314265E0,-3.764471351E0,6.827255224E0
1.583855596E1,-4.872970122E-1,-5.886605421E0,-2.882299294E0,6.572460040E0
1.584850696E1,-6.296059620E-1,-6.002733462E0,-1.725645486E0,6.277504682E0
1.585845696E1,-7.683714992E-1,-6.391515416E0,-1.020647864E0,6.517943398E0
1.586840696E1,-9.981010008E-1,-6.623007268E0,-4.544689894E-1,6.713193945E0
1.587835696E1,-1.291871547E0,-6.688739913E0,-3.998269053E-1,6.824077613E0
1.588830696E1,-1.791993842E0,-6.594008587E0,8.185230678E-1,6.882017959E0
1.589825696E1,-2.726300551E0,-5.813032245E0,2.430084114E0,6.865083202E0
1.590820696E1,-3.248708923E0,-4.731735891E0,3.888857123E0,6.933011173E0
1.591815696E1,-3.163067679E0,-4.178581688E0,5.553521705E0,7.635911563E0
1.592810696E1,-2.353128909E0,-4.155326142E0,6.180246159E0,7.810210855E0
1.593805796E1,-1.114043101E0,-3.299761548E0,5.913843505E0,6.863167149E0
1.594800796E1,2.104331052E-1,-2.006470297E0,5.281742536E0,5.653937510E0
