"Time (s)","Linear Acceleration x (m/s^2)","Linear Acceleration y (m/s^2)","Linear Acceleration z (m/s^2)","Absolute acceleration (m/s^2)"
5.799999926E-4,-2.800468662E-2,2.251420137E-2,2.130959272E-2,4.177619512E-2
1.053000000E-2,1.226906642E-2,1.994439578E-3,-8.927528858E-3,1.530387375E-2
2.048000001E-2,5.421862691E-3,-3.561219284E-3,-4.125853837E-2,4.176536682E-2
3.043000001E-2,2.975716568E-3,-8.291475135E-3,-2.164990067E-2,2.337352451E-2
4.037999999E-2,-2.157855551E-3,-1.685221912E-2,-3.238772750E-3,1.729575898E-2
5.033000000E-2,-3.532549655E-3,-1.127583462E-2,-3.931316972E-2,4.105056232E-2
6.027900000E-2,7.242233399E-4,-1.240237380E-2,2.899049520E-3,1.275726709E-2
7.022900000E-2,-1.713598724E-2,3.641714430E-3,-3.512247026E-2,3.924910266E-2
8.017900001E-2,-5.019208803E-3,-3.072652440E-3,-3.661877275E-2,3.708865281E-2
9.012900002E-2,5.043502157E-3,8.875433821E-4,-4.884763956E-3,7.077115667E-3
1.000790000E-1,4.463910609E-3,5.399844269E-3,-3.018215775E-2,3.098463269E-2
1.100290000E-1,2.799683399E-3,5.123979030E-3,-6.231962442E-3,8.539949890E-3
1.199780000E-1,1.238897089E-3,-3.851949242E-3,-2.599204302E-2,2.630510747E-2
1.299280000E-1,1.269110749E-3,-6.974006086E-3,-2.359760821E-2,2.463928806E-2
1.398780000E-1,1.508335873E-2,-7.956420542E-3,-4.138074517E-3,1.754810528E-2
1.498280000E-1,5.483116843E-3,4.929417497E-3,-2.479628742E-2,2.586927902E-2
1.597780000E-1,9.624544373E-3,4.246581481E-3,-1.356963336E-2,1.716974835E-2
1.697280000E-1,1.699703364E-3,1.203950839E-3,-1.746270955E-2,1.758649237E-2
1.796770000E-1,3.056380735E-3,3.325864286E-3,-1.581613362E-2,1.644849291E-2
1.896270000E-1,4.278983278E-3,2.385695963E-3,-7.882631421E-3,9.281008633E-3
1.995770000E-1,2.131999894E-3,1.456756121E-3,-3.422784626E-2,3.432510775E-2
2.095270000E-1,-9.028466418E-4,4.682495976E-3,-1.970862508E-2,2.027734704E-2
2.194770000E-1,2.716273782E-3,-8.826431413E-3,-1.417072713E-2,1.691429993E-2
2.294260000E-1,-2.461929037E-3,-1.383406912E-2,-2.884022176E-2,3.208116199E-2
2.393763333E-1,-1.315184981E-3,-5.850486439E-3,-1.012971640E-2,1.177153590E-2
2.493263333E-1,-3.109631510E-3,-2.727995622E-3,-1.970920980E-2,2.013863747E-2
2.592763333E-1,-6.443759557E-3,-5.471175732E-3,-2.824205160E-2,2.947998100E-2
2.692263333E-1,5.582711371E-3,3.306093388E-3,-4.889441729E-3,8.124257514E-3
2.791763333E-1,4.734801147E-3,-3.477722872E-3,-1.925955892E-2,2.013562783E-2
2.891253333E-1,9.364178823E-4,-5.678875227E-3,-1.970804036E-2,2.053127753E-2
2.990753333E-1,1.647823029E-3,6.625265353E-3,-1.881107748E-2,2.001164905E-2
3.090253334E-1,2.597228126E-3,9.412422921E-3,-2.390049398E-2,2.581807335E-2
3.189753333E-1,1.216411804E-2,3.566564005E-3,-8.333451748E-3,1.517012078E-2
3.289253333E-1,1.260950228E-2,-7.207972370E-3,-2.704512656E-2,3.069842478E-2
3.388753333E-1,5.596493441E-3,-1.105449467E-2,-1.656633139E-2,2.068733735E-2
3.488243333E-1,-8.603972266E-3,-7.948695822E-3,-5.639054775E-3,1.300034779E-2
3.587743333E-1,4.300444387E-3,-6.210007975E-3,-2.075703084E-2,2.208873809E-2
3.687243333E-1,2.651511300E-3,-5.946915247E-3,-1.461979330E-2,1.600420786E-2
3.786743333E-1,-9.615928866E-6,-5.031593023E-3,-2.165457845E-2,2.223145943E-2
3.886243333E-1,-3.333945321E-3,-9.514607582E-3,-1.881049275E-2,2.134192087E-2
3.985743333E-1,6.260590958E-3,-8.990468653E-3,-2.674399495E-2,2.890094794E-2
4.085233333E-1,2.534950711E-4,-7.048270293E-4,-9.680650234E-3,9.709584432E-3
4.184733333E-1,-4.720635354E-3,7.287425981E-3,-9.381857514E-3,1.278320093E-2
4.284233333E-1,7.361269919E-3,-1.097198040E-3,-2.015944541E-2,2.148942478E-2
4.383733333E-1,-8.499339083E-4,-1.166464705E-3,-1.342462242E-2,1.350198188E-2
4.483233333E-1,-3.351231152E-4,6.968574570E-3,-1.641839683E-2,1.783920103E-2
4.582723333E-1,-4.602580983E-4,6.814486734E-3,-2.165691733E-2,2.270839350E-2
4.682223334E-1,3.724872801E-3,1.112396233E-3,-1.911220908E-2,1.950355452E-2
4.781723333E-1,4.397403100E-3,-1.485782065E-2,-1.911279380E-2,2.460469215E-2
4.881223333E-1,-4.558224371E-4,-4.856948568E-3,-2.255504966E-2,2.307656795E-2
4.980723333E-1,2.853578283E-3,1.407146151E-3,-1.806438804E-2,1.834243944E-2
5.080223333E-1,6.006186828E-4,-4.078076603E-3,-2.090905845E-2,2.131150339E-2
5.179713333E-1,-4.525708370E-3,-1.141648300E-2,-1.522088706E-2,1.955744163E-2
5.279213333E-1,9.051718237E-4,-4.742041645E-3,-2.315438926E-2,2.365231568E-2
5.378713333E-1,2.061783057E-4,-4.219017341E-3,-1.581905723E-2,1.637330719E-2
5.478213333E-1,-1.197893489E-3,-3.782760235E-3,-2.390283287E-2,2.422993279E-2
5.577713333E-1,4.031426786E-4,1.056515124E-2,-1.671777427E-2,1.978051873E-2
5.677213333E-1,-3.040935863E-3,-5.608987296E-4,-1.611843467E-2,1.641236834E-2
5.776703333E-1,-3.357124049E-3,3.357567159E-3,-1.387193441E-2,1.466199521E-2
5.876203333E-1,-6.304778550E-3,5.640964257E-4,-2.569675863E-2,2.646491718E-2
5.975703333E-1,1.100788596E-3,-5.522197257E-3,-2.569617391E-2,2.630588815E-2
6.075203333E-1,5.593542424E-3,-1.674436997E-3,-2.015769124E-2,2.098628057E-2
6.174703333E-1,3.274102723E-3,5.842547016E-3,-2.839115560E-2,2.917041002E-2
6.274203333E-1,6.790581672E-4,-1.011455475E-2,-3.003773153E-2,3.170221843E-2
6.373693333E-1,-1.210346231E-3,6.518503418E-4,-1.372166097E-2,1.379035267E-2
6.473193333E-1,4.274675525E-3,7.940107724E-4,-2.045765340E-2,2.091456160E-2
6.572693333E-1,-3.453671630E-3,-3.806121689E-3,-1.521854818E-2,1.606295797E-2
6.672193334E-1,2.028019954E-3,-3.647493124E-3,-2.315263510E-2,2.352576424E-2
6.771693333E-1,-1.724138330E-3,4.767353693E-4,-2.225450277E-2,2.232628100E-2
6.871193333E-1,-4.325084919E-3,2.072408544E-3,-2.210539877E-2,2.261967930E-2
6.970683333E-1,-2.204244984E-3,-1.920901705E-4,-1.641722739E-2,1.656565573E-2
7.070183333E-1,-5.939770681E-3,3.157222364E-4,-1.986065269E-2,2.073224738E-2
7.169683333E-1,1.177387121E-3,-5.278222184E-3,-2.015944541E-2,2.087220901E-2
7.269183333E-1,7.037443807E-3,8.944915188E-3,-2.450158775E-2,2.701601239E-2
7.368683333E-1,-4.682107684E-3,-6.261774106E-4,-1.117870688E-2,1.213580315E-2
7.468173333E-1,-2.294456558E-3,-6.474146806E-4,-1.192715049E-2,1.216308330E-2
7.567673333E-1,5.079311784E-5,3.413293865E-3,-8.933376074E-3,9.563386588E-3
7.667173333E-1,1.613580273E-3,-3.213008456E-3,-3.048796713E-2,3.069923785E-2
7.766673333E-1,4.210767285E-3,1.083607832E-3,-2.225567222E-2,2.267641314E-2
7.866173333E-1,9.273135848E-4,-7.219374441E-3,-2.180719078E-2,2.298984226E-2
7.965673333E-1,-6.789668044E-3,-6.200593044E-3,-1.806438804E-2,2.026990531E-2
8.065163333E-1,4.301257515E-3,-8.479266688E-3,-2.240477622E-2,2.433870944E-2
8.164663333E-1,3.073250866E-3,-6.713759308E-3,-3.153578818E-2,3.238866115E-2
8.264163334E-1,-1.200264352E-3,-7.393027609E-4,-1.746563315E-2,1.752242976E-2
8.363663333E-1,-4.380487287E-3,6.256479635E-3,-2.105816245E-2,2.240041098E-2
8.463163333E-1,-5.138738682E-3,-1.796689485E-3,-2.270356894E-2,2.334709341E-2
8.562663333E-1,4.485910758E-4,-6.574380873E-3,-2.644578695E-2,2.725441919E-2
8.662153333E-1,-7.578886840E-3,-4.990968578E-3,-2.300294638E-2,2.472821941E-2
8.761653333E-1,-4.513406376E-3,4.067149619E-4,-2.000858724E-2,2.051535565E-2
8.861153333E-1,3.534760633E-3,-3.009776599E-3,-2.195571005E-2,2.244117849E-2
8.960653333E-1,2.168745990E-3,-5.136815496E-3,-1.926131308E-2,2.005214488E-2
9.060153333E-1,3.310606708E-3,8.210952580E-3,-1.866197348E-2,2.065548627E-2
9.159653333E-1,5.659323600E-3,7.288280223E-4,-1.461979330E-2,1.569386791E-2
9.259143333E-1,5.541145890E-3,-1.500811237E-3,-1.207508504E-2,1.337028089E-2
9.358643333E-1,4.580503176E-3,5.009592874E-3,-1.716450155E-2,1.845798319E-2
9.458143333E-1,-3.507223902E-3,9.055112363E-3,-1.387076497E-2,1.693203474E-2
9.557643333E-1,7.250867179E-3,-4.329954553E-3,-1.117636800E-2,1.400838259E-2
9.657143333E-1,-9.283062411E-3,3.070295281E-3,-1.327201009E-2,1.648478731E-2
9.756643333E-1,-5.448481226E-3,1.029598746E-3,-1.222418904E-2,1.342299590E-2
9.856133333E-1,-2.577882065E-3,1.670522103E-4,-2.524710774E-2,2.537892495E-2
9.955633333E-1,-5.731417942E-3,2.094116332E-3,-1.476831257E-2,1.597928444E-2
1.005513333E0,-4.315610602E-3,-9.647220606E-4,-1.132547200E-2,1.215818652E-2
1.015463333E0,-1.656315196E-4,2.374828365E-3,-2.749243855E-2,2.759531520E-2
1.025413333E0,-2.283771685E-3,-4.495234326E-3,-2.629551351E-2,2.677455463E-2
1.035363333E0,-2.072984129E-3,-6.368938037E-3,-1.971037924E-2,2.081729293E-2
1.045312333E0,2.127582505E-3,-3.611815972E-3,-1.117753744E-2,1.193772027E-2
1.055262333E0,1.032600012E-3,9.461160377E-4,-2.644637167E-2,2.648342827E-2
1.065212333E0,3.561968459E-3,2.686521504E-3,-2.659606040E-2,2.696767409E-2
1.075162333E0,-4.357541534E-3,-6.141129602E-3,-1.462037802E-2,1.644557978E-2
1.085112333E0,6.095142164E-3,-8.223419026E-3,-1.641781211E-2,1.934734951E-2
1.095062333E0,5.482143830E-3,3.770152177E-3,-1.986065269E-2,2.094548814E-2
1.105011333E0,4.996432071E-3,1.409497371E-2,-2.030913413E-2,2.522089504E-2
1.114961333E0,-2.575661950E-3,6.377681452E-3,-4.890026450E-3,8.439266192E-3
1.124911333E0,-3.004568922E-3,-1.089930134E-3,-2.824146688E-2,2.842174931E-2
1.134861333E0,-9.010303505E-3,-5.995314661E-3,-1.791294515E-2,2.092852052E-2
1.144811333E0,1.865124749E-3,2.779336916E-3,-1.177629232E-2,1.224273111E-2
1.154761333E0,-1.426811982E-3,7.624097695E-3,-1.866197348E-2,2.020969847E-2
1.164711333E0,-4.747162526E-3,-1.859163330E-3,-1.746504843E-2,1.819395386E-2
1.174660333E0,3.398502236E-3,-1.267590016E-2,-1.132722616E-2,1.733592555E-2
1.184610333E0,1.073440529E-2,-4.887075434E-3,-1.327317953E-2,1.775635824E-2
1.194560333E0,7.109803101E-4,-1.619573669E-3,-2.674516439E-2,2.680358801E-2
1.204510333E0,3.477649782E-3,-9.284551623E-3,-2.150605917E-2,2.368137513E-2
1.214460333E0,4.653620780E-3,-2.090877523E-3,-1.896135092E-2,1.963570177E-2
1.224409333E0,3.590427954E-3,7.641717000E-4,-2.135637045E-2,2.166955676E-2
1.234359333E0,2.706845147E-3,-8.163750018E-3,-3.303150594E-2,3.413289044E-2
1.244309375E0,3.978048102E-3,-1.015148357E-2,-2.120551229E-2,2.384431246E-2
1.254259375E0,-1.014158442E-3,-1.045317706E-3,-2.015769124E-2,2.021023806E-2
1.264209375E0,-2.824771609E-3,1.653345907E-3,-1.970979452E-2,1.997971189E-2
1.274159375E0,-8.003901760E-3,5.703538600E-3,-1.791294515E-2,2.043199452E-2
1.284108375E0,4.260162553E-3,5.902074412E-3,-2.973718464E-2,3.061508808E-2
1.294058375E0,9.538316214E-4,4.707780615E-3,-2.270239949E-2,2.320499808E-2
1.304008375E0,-3.394007189E-3,2.972943708E-4,-1.312173665E-2,1.355683006E-2
1.313958375E0,-3.474050090E-3,1.368737253E-3,-1.791177571E-2,1.829683510E-2
1.323908375E0,7.463011472E-4,3.763976055E-3,-1.955718219E-2,1.993007417E-2
1.333858375E0,5.919483583E-4,8.979235603E-3,-1.731126666E-2,1.951043383E-2
1.343808375E0,-6.713192859E-3,2.112626424E-3,-2.689017534E-2,2.779589320E-2
1.353757375E0,-3.880765052E-3,-4.934922103E-3,-2.030387163E-2,2.125231744E-2
1.363707375E0,-6.848048838E-4,-4.438109770E-3,-1.791002154E-2,1.846441572E-2
1.373657375E0,1.121042346E-2,9.194472525E-4,-2.090379596E-2,2.373789508E-2
1.383607375E0,-2.978471154E-3,-5.183743970E-3,-1.701247394E-2,1.803238092E-2
1.393557375E0,-1.025254447E-3,6.457610149E-4,-1.686336994E-2,1.690684476E-2
1.403507375E0,6.549068824E-3,-2.449147389E-3,-2.494656086E-2,2.590790466E-2
1.413456375E0,1.476431089E-3,-3.524610233E-3,-1.731243610E-2,1.772916157E-2
1.423406375E0,5.802685451E-3,-2.987707928E-3,-2.584352374E-2,2.665492968E-2
1.433356375E0,6.850730334E-3,-2.616350348E-3,-1.925663531E-2,2.060572247E-2
1.443306375E0,5.510425167E-3,-3.486036882E-4,-2.030387163E-2,2.104123364E-2
1.453256375E0,-5.104564447E-3,-8.275454678E-4,-2.359702349E-2,2.415700576E-2
1.463206375E0,-8.835645346E-4,-3.167130654E-3,-1.716040850E-2,1.747257916E-2
1.473156375E0,-9.579982194E-3,-6.107699974E-3,-2.120258868E-2,2.405472562E-2
1.483105375E0,-9.112150124E-3,-8.044151617E-3,-1.671192706E-2,2.066465971E-2
1.493055375E0,7.078196160E-3,-3.737681857E-3,-2.150196612E-2,2.294353228E-2
1.503005375E0,6.273875101E-3,-2.432354917E-3,-2.389815509E-2,2.482739769E-2
1.512955375E0,7.497866359E-4,6.501875399E-4,-1.476597369E-2,1.479928724E-2
1.522905375E0,4.535429366E-4,-1.889628237E-3,-5.934339166E-3,6.244419701E-3
1.532855375E0,-4.516403074E-3,-5.859302944E-3,-2.015535235E-2,2.147015501E-2
1.542804375E0,-2.255659369E-3,-9.303326667E-3,-1.536589801E-2,1.810388654E-2
1.552754375E0,3.075777045E-3,-9.024629183E-4,-2.150313556E-2,2.174073786E-2
1.562704375E0,1.016463067E-2,1.297593084E-3,-2.090496540E-2,2.328134538E-2
1.572654375E0,8.806139748E-3,3.392001777E-3,-1.686336994E-2,1.932425986E-2
1.582604375E0,-2.183606140E-3,-7.167315949E-4,-2.973659992E-2,2.982527812E-2
1.592554375E0,-5.702117910E-3,-5.860856110E-3,-1.850936115E-2,2.023512375E-2
1.602504375E0,-4.808736448E-3,-8.388232850E-3,-3.063414752E-2,3.212378233E-2
1.612453375E0,-2.229063674E-3,-1.463969210E-3,-2.539445758E-2,2.553410281E-2
1.622403375E0,1.110157389E-2,-1.425400428E-3,-1.835908771E-2,2.150192574E-2
1.632353375E0,-3.594187531E-3,-1.684171697E-3,-1.341994464E-2,1.399462513E-2
1.642303375E0,7.959864917E-3,-5.560615291E-3,-9.677726626E-3,1.370905849E-2
1.652253375E0,6.943111774E-4,-1.742145927E-3,-1.985714436E-2,1.994550883E-2
1.662203375E0,9.474339453E-3,-3.286546329E-3,-1.566586018E-2,1.860063628E-2
1.672152375E0,-3.608216280E-3,-2.916961187E-3,-1.551558673E-2,1.619448421E-2
1.682102375E0,-1.305664983E-4,-9.981197119E-4,-1.446718097E-2,1.450215900E-2
1.692052375E0,-4.061640445E-3,-3.497311044E-3,-1.341994464E-2,1.445071008E-2
1.702002375E0,-1.001258022E-3,5.621581650E-3,-1.252181232E-2,1.376228475E-2
1.711952375E0,2.141803117E-3,-5.653252546E-3,-1.401869953E-2,1.526664735E-2
1.721902375E0,7.201120164E-3,-5.820044372E-3,-2.120375812E-2,2.313716505E-2
1.731852375E0,1.043056478E-3,-5.648350934E-3,-1.970628619E-2,2.052631361E-2
1.741801375E0,-4.711078811E-3,-2.107738517E-4,-1.237212360E-2,1.324039771E-2
1.751751375E0,-5.844155001E-4,-8.421329004E-3,-1.491741657E-2,1.714029290E-2
1.761701375E0,-7.422866682E-3,-9.300736533E-3,-1.207333088E-2,1.695193111E-2
1.771651375E0,-6.611241172E-3,2.273607580E-4,-1.356963336E-2,1.509619662E-2
1.781601375E0,9.295062907E-4,-7.121077264E-3,-1.701188922E-2,1.846559228E-2
1.791551375E0,6.481163464E-3,5.093153240E-3,-2.449690998E-2,2.584655273E-2
1.801500375E0,6.995965121E-3,5.774079775E-3,-2.524593830E-2,2.682612395E-2
1.811450375E0,-4.664387880E-4,-1.020549266E-2,-1.850936115E-2,2.114157269E-2
1.821400375E0,1.519152308E-3,-5.637323451E-3,-9.229245186E-3,1.092090684E-2
1.831350375E0,-2.211147440E-3,-4.276489075E-3,-2.075586140E-2,2.130688420E-2
1.841300375E0,-1.719533647E-3,-3.987202649E-3,-1.581554890E-2,1.640079778E-2
1.851250375E0,1.581032295E-4,1.315925019E-3,-2.045648396E-2,2.049937539E-2
1.861200375E0,-9.726660512E-4,-6.468541701E-3,-1.746329427E-2,1.864818376E-2
1.871149375E0,-3.177468348E-3,-3.119644867E-3,-2.090613484E-2,2.137510148E-2
1.881099375E0,-3.617073898E-3,1.726892916E-3,-5.487611890E-3,6.795532870E-3
1.891049375E0,1.495123906E-3,-9.984454201E-3,-1.162484944E-2,1.539681284E-2
1.900999375E0,3.571461048E-4,-6.456002165E-3,-3.063473225E-2,3.130965246E-2
1.910949375E0,3.880468123E-3,1.092738625E-2,-2.105406940E-2,2.403621520E-2
1.920899375E0,-9.751506611E-3,-1.998614855E-3,-1.806029499E-2,2.062184758E-2
1.930849375E0,1.971196895E-4,-6.505534477E-3,-1.371990681E-2,1.518541003E-2
1.940798375E0,-3.039958281E-4,-6.014295272E-3,-2.135403156E-2,2.218690661E-2
1.950748375E0,-1.164738406E-2,1.770294788E-3,-2.539562702E-2,2.799523836E-2
1.960698375E0,-5.276066023E-3,-6.253094645E-4,-1.327025592E-2,1.429431974E-2
1.970648375E0,5.659163715E-3,4.440850653E-3,-1.087465167E-2,1.303860949E-2
1.980598375E0,3.441323955E-3,2.707909523E-3,-1.775974810E-2,1.829164118E-2
1.990548375E0,1.808329099E-3,-2.053555842E-3,-1.970628619E-2,1.989534773E-2
2.000498375E0,1.864996841E-3,2.021697653E-3,-1.731243610E-2,1.752957268E-2
2.010447375E0,-2.054277607E-3,-1.048387494E-3,-2.000683308E-2,2.013932826E-2
2.020397375E0,-9.051855281E-4,5.501910159E-4,-5.337338448E-3,5.441438477E-3
2.030347375E0,-8.037226321E-4,-8.825901509E-3,-1.566644490E-2,1.799944453E-2
2.040297375E0,3.315955997E-3,-5.177777982E-3,-6.685121655E-3,9.082719887E-3
2.050247375E0,4.736884218E-4,-4.405602906E-4,-7.432980537E-3,7.461077252E-3
2.060197375E0,-8.933997341E-4,-2.536526718E-3,-1.476772785E-2,1.501059349E-2
2.070147375E0,-1.551339403E-3,-3.075498389E-3,-1.596523762E-2,1.633261022E-2
2.080096375E0,7.752631372E-4,-5.887374147E-3,-2.464659870E-2,2.535186452E-2
2.090046375E0,3.169227429E-3,8.139940887E-3,-1.865846515E-2,2.060196500E-2
2.099996375E0,8.216799796E-4,-3.781901426E-3,-1.042500079E-2,1.112018785E-2
2.109946375E0,2.056529699E-4,-1.499250761E-2,-1.715982378E-2,2.278765301E-2
2.119896375E0,1.001283147E-2,-3.333767164E-3,-2.539211869E-2,2.749782699E-2
2.129846375E0,9.651377611E-4,4.465399822E-4,-1.715923905E-2,1.719216024E-2
2.139796375E0,-3.981684339E-3,2.210699762E-3,-1.895550370E-2,1.949492560E-2
2.149746375E0,-2.608082020E-3,-5.167225585E-3,-1.461394608E-2,1.571845196E-2
2.159695375E0,-7.244700193E-4,-4.858876322E-3,-1.940515459E-2,2.001733150E-2
2.169645375E0,-2.726424183E-3,-2.948919875E-3,-1.970394731E-2,2.010907896E-2
2.179595375E0,3.877494265E-3,1.973526645E-3,-2.329647660E-2,2.369927407E-2
2.189545375E0,1.082237391E-3,-5.598704419E-3,-8.776085973E-3,1.046596455E-2
2.199495375E0,5.371663431E-3,1.037698053E-3,-1.266799271E-2,1.379889940E-2
2.209445375E0,2.927166405E-3,-4.817626043E-3,-2.269655228E-2,2.338613498E-2
2.219395375E0,-7.622211054E-3,-1.886869082E-3,-1.356495559E-2,1.567374864E-2
2.229344375E0,7.342915144E-3,-1.205142666E-2,-1.506184280E-2,2.064011618E-2
2.239294625E0,1.028585989E-2,-1.469679839E-2,-1.910343826E-2,2.620565110E-2
2.249244625E0,1.600519968E-3,-7.346094567E-3,-1.790592849E-2,1.942032556E-2
2.259194625E0,5.452149441E-3,5.706261210E-3,-2.509157181E-2,2.630350407E-2
2.269144625E0,-5.634705909E-4,-5.372960782E-3,-2.389406204E-2,2.449719183E-2
2.279094625E0,4.034971660E-3,1.652825139E-3,-1.431515336E-2,1.496450611E-2
2.289044625E0,6.793825049E-4,-6.474105692E-3,-2.584176958E-2,2.664906490E-2
2.298993625E0,-8.593762480E-4,-6.805245392E-3,-2.973309159E-2,3.051403985E-2
2.308943625E0,1.127749742E-3,-9.128115764E-3,-2.389523149E-2,2.560422630E-2
2.318893625E0,3.800781537E-3,-4.449753952E-3,-1.536355913E-2,1.644035278E-2
2.328843625E0,6.921550166E-4,7.196232257E-3,-1.820822954E-2,1.959092801E-2
2.338793625E0,2.370557156E-3,-2.754550204E-3,-2.269947588E-2,2.298854701E-2
2.348743625E0,-5.603277124E-3,-1.812787601E-3,-1.940632403E-2,2.028024472E-2
2.358693625E0,-6.466230224E-3,6.014948515E-3,-1.327025592E-2,1.594024564E-2
2.368643625E0,2.752896538E-4,-4.891967908E-3,-1.057585895E-2,1.165572507E-2
2.378592625E0,7.953757318E-3,-1.245571137E-3,-2.343564034E-3,8.384867042E-3
2.388542625E0,2.424803786E-3,5.109740146E-3,-1.611668050E-2,1.708029590E-2
2.398492625E0,3.451880920E-3,-4.747002642E-3,-1.372107625E-2,1.492372103E-2
2.408442625E0,2.626350001E-3,-6.655643466E-3,-1.896018147E-2,2.026533458E-2
2.418392625E0,-2.334395782E-3,3.951539202E-3,-1.012913167E-2,1.112040351E-2
2.428342625E0,2.560852049E-4,-3.066892019E-3,-1.686570883E-2,1.714419845E-2
2.438292625E0,7.745642122E-4,-4.719036506E-3,-2.435014486E-2,2.481529388E-2
2.448242625E0,-1.531728390E-3,6.705710250E-3,-1.237563193E-2,1.415870783E-2
2.458191625E0,3.789881961E-3,-3.553540246E-3,-2.390224814E-2,2.446034178E-2
2.468141625E0,4.237340139E-3,-9.589552442E-3,-2.016061485E-2,2.272366517E-2
2.478091625E0,-2.460741322E-3,-1.142183685E-2,-1.492092490E-2,1.895119006E-2
2.488041625E0,3.099184181E-3,3.871587664E-4,-2.195571005E-2,2.217674544E-2
2.497991625E0,5.484944098E-3,-8.322839965E-3,-1.551792562E-2,1.844343494E-2
2.507941625E0,-2.513274900E-3,-1.049666572E-4,-1.881166220E-2,1.897909912E-2
2.517891625E0,-4.567159647E-3,8.650923581E-3,-2.614582479E-2,2.791597356E-2
2.527840625E0,-2.240497721E-3,-7.805489288E-3,-1.521854818E-2,1.724962903E-2
2.537790625E0,-2.023835541E-3,1.717656143E-3,-2.285208821E-2,2.300574251E-2
2.547740625E0,5.113403792E-3,-4.880104456E-3,-1.851111531E-2,1.981473462E-2
2.557690625E0,-3.767982312E-4,3.932681931E-3,-7.285045981E-3,8.287331237E-3
2.567640625E0,-2.408038722E-3,6.447487157E-3,-1.387134969E-2,1.548493085E-2
2.577590625E0,6.202612161E-3,4.425017489E-4,-1.267442465E-2,1.411769264E-2
2.587540625E0,-2.003128175E-4,-8.118858933E-4,-1.312349081E-2,1.315010627E-2
2.597490625E0,5.767976744E-3,3.561502509E-4,-2.315205038E-2,2.386239375E-2
2.607439625E0,-3.208467728E-3,5.523700174E-3,-1.446893513E-2,1.581630844E-2
2.617389625E0,-2.417147588E-3,-6.335042459E-3,-1.012796223E-2,1.218814934E-2
2.627339625E0,-2.187059652E-3,6.962613151E-3,-1.821173787E-2,1.961959755E-2
2.637289625E0,3.686486743E-4,-3.592086188E-3,-1.147574544E-2,1.203044963E-2
2.647239625E0,-3.714206200E-3,-7.282570051E-4,-1.970804036E-2,2.006819724E-2
2.657189625E0,3.066270752E-4,-2.598804133E-3,-1.177453816E-2,1.206182208E-2
2.667139625E0,-5.480380529E-3,-1.964522847E-3,-1.820998371E-2,1.911798701E-2
2.677089625E0,-6.294559627E-3,-4.085353645E-3,-1.910870075E-2,2.052934582E-2
2.687039625E0,-2.681788914E-3,-1.547051292E-2,-3.048562825E-2,3.429143175E-2
2.696988625E0,-3.176230383E-3,-2.472979361E-3,-2.329998493E-2,2.364515520E-2
2.706938625E0,5.490900949E-4,-3.445362188E-3,-1.746154010E-2,1.780666738E-2
2.716888625E0,3.369179363E-3,-7.246618811E-4,-1.072496295E-2,1.126504925E-2
2.726838625E0,-2.322440967E-3,-8.416180713E-3,-1.444262266E-3,8.849391128E-3
2.736788625E0,3.077914934E-3,-7.431157851E-3,-1.102550983E-2,1.364762010E-2
2.746738625E0,-4.565177076E-3,1.441064570E-4,-1.461862385E-2,1.531554020E-2
2.756688625E0,-2.120675482E-3,1.806049598E-3,-1.791119099E-2,1.812649559E-2
2.766638625E0,-1.942467880E-3,-8.527725488E-3,-2.210247517E-2,2.377003769E-2
2.776587625E0,6.744288169E-3,-8.029369125E-4,-1.282235920E-2,1.451010083E-2
2.786537625E0,6.587345246E-4,-1.750103622E-3,-1.626519978E-2,1.637234002E-2
2.796487625E0,-3.639512588E-3,-5.687760254E-3,-1.072730184E-2,1.267563305E-2
2.806437625E0,-4.867807031E-4,9.632556885E-4,-1.222360432E-2,1.227115804E-2
2.816387625E0,2.464103471E-3,2.506198855E-3,-1.880932331E-2,1.913487607E-2
2.826337625E0,1.586696785E-3,-5.296800798E-4,-2.060500324E-2,2.067279193E-2
2.836287625E0,-9.762735092E-3,7.451956579E-4,-1.716274738E-2,1.975920572E-2
2.846237625E0,1.013761014E-4,3.748649955E-3,-5.187065005E-3,6.400648168E-3
2.856187625E0,-3.367183087E-3,-6.566491700E-3,-8.480801582E-3,1.124191846E-2
2.866136625E0,-2.185218693E-3,-9.679352883E-3,-1.893913150E-3,1.010207701E-2
2.876086625E0,-1.771286074E-3,-1.135891533E-2,-1.761064410E-2,2.103086298E-2
2.886036625E0,-6.348701189E-3,-9.718638863E-3,-1.102550983E-2,1.600999111E-2
2.895986625E0,-3.020082316E-3,-1.247345402E-2,-1.656340778E-2,2.095362569E-2
2.905936625E0,3.140996341E-3,3.516140906E-4,-1.207216144E-2,1.247904532E-2
2.915886625E0,2.865501121E-4,-2.550829556E-3,-1.282060504E-2,1.307504325E-2
2.925836625E0,6.287702853E-3,-1.951147341E-3,-8.330528140E-3,1.061790385E-2
2.935786625E0,1.706747431E-3,-1.068994361E-3,-9.826245904E-3,1.003049572E-2
2.945736625E0,-3.925459706E-3,-5.913590686E-4,-1.162251055E-2,1.228176254E-2
2.955685625E0,8.051963132E-3,-2.260195529E-3,-1.566410601E-2,1.775688067E-2
2.965635625E0,2.971888469E-3,-4.590251581E-3,-2.090379596E-2,2.160720287E-2
2.975585625E0,-1.464595045E-3,6.157711940E-4,-1.551558673E-2,1.559671903E-2
2.985535625E0,-6.354023069E-3,2.651374256E-3,-2.270006061E-2,2.372121721E-2
2.995485625E0,2.943323907E-3,-6.017931509E-3,-1.162251055E-2,1.341496950E-2
3.005435625E0,4.483809415E-3,-6.121555134E-3,-9.527453184E-3,1.217991578E-2
3.015385625E0,2.695634938E-3,-6.555450512E-3,-1.431749225E-2,1.597594953E-2
3.025335625E0,7.969800616E-3,-1.202276617E-2,-1.611258745E-2,2.162591276E-2
3.035285625E0,6.669069221E-4,-8.480253406E-3,-2.539387286E-2,2.678074385E-2
3.045234625E0,9.976948751E-4,-3.216580739E-3,-2.120141923E-2,2.146723001E-2
3.055184625E0,-5.219306918E-3,-2.832048652E-3,-1.446659625E-2,1.563790495E-2
3.065134625E0,-2.929043910E-4,-8.910877998E-3,-1.970628619E-2,2.162931472E-2
3.075084625E0,6.594681675E-3,3.100805869E-4,-2.015535235E-2,2.120905950E-2
3.085034625E0,6.569492966E-3,-1.840319764E-3,-1.341935992E-2,1.505404382E-2
3.094984625E0,-3.122623293E-3,-7.159093302E-3,-2.075410724E-2,2.217512932E-2
3.104934625E0,-2.576114195E-3,3.494428550E-3,-6.981575489E-3,8.221301086E-3
3.114884625E0,2.908898424E-4,4.137055823E-3,-2.790876031E-3,4.998883555E-3
3.124834625E0,-3.922951799E-3,-7.580545074E-3,-8.030565977E-3,1.171939437E-2
3.134784625E0,-3.916967539E-3,-8.073620670E-3,-2.644286335E-2,2.792402205E-2
3.144733625E0,-3.708811230E-3,2.622946738E-3,-1.865904987E-2,1.920404312E-2
3.154683625E0,-3.243733747E-3,1.677689510E-3,-1.027648151E-2,1.090607734E-2
3.164633625E0,-6.626672340E-3,-1.682609394E-3,-3.689593077E-3,7.768980483E-3
3.174583625E0,-1.557794181E-3,-2.631735834E-3,-8.330528140E-3,8.874145328E-3
3.184533625E0,3.793271519E-3,-1.174986108E-2,-2.524535358E-2,2.810295397E-2
3.194483625E0,-1.006072839E-3,-3.170689233E-3,-1.806029499E-2,1.836408745E-2
3.204433625E0,-2.195766522E-4,6.890185336E-3,-1.746154010E-2,1.877307249E-2
3.214383625E0,1.694093691E-3,3.389772526E-3,-4.887687564E-3,6.184658514E-3
3.224333625E0,3.988394933E-3,-7.987186946E-3,-1.042675495E-2,1.372660440E-2
3.234283625E0,3.508909545E-3,-1.302942373E-2,-5.188819170E-3,1.445690746E-2
3.244232458E0,-8.489800813E-3,-1.258932939E-4,-1.387076497E-2,1.626316967E-2
3.254182458E0,2.049097340E-3,5.760421045E-4,-6.088120937E-3,6.449483775E-3
3.264132458E0,1.648796042E-3,2.738689631E-3,-8.782517910E-3,9.346206189E-3
3.274082458E0,6.054152269E-5,-8.870865684E-3,-1.671602011E-2,1.892409183E-2
3.284032458E0,1.327190045E-3,-8.197481143E-3,-2.165516317E-2,2.319280540E-2
3.293982458E0,1.840963871E-3,-4.885860309E-3,-1.372107625E-2,1.468089617E-2
3.303932458E0,-4.098441359E-4,-3.901540940E-3,-8.482555747E-3,9.345787603E-3
3.313882458E0,-1.725686928E-3,-3.707390539E-3,-4.291856289E-3,5.928133803E-3
3.323832458E0,3.517200714E-3,1.086458350E-3,-1.282528281E-2,1.334312451E-2
3.333782458E0,4.378399649E-3,5.751485769E-3,-1.731594443E-2,1.876411212E-2
3.343731458E0,-2.301710760E-3,-1.103575617E-2,-1.656808555E-2,2.003964185E-2
3.353681458E0,-2.049714038E-3,-2.865185919E-3,-1.177804649E-2,1.229361611E-2
3.363631458E0,-1.248905878E-3,3.909439249E-3,-1.492034018E-2,1.547449619E-2
3.373581458E0,8.165636659E-4,-3.786944649E-3,-8.783102632E-3,9.599511333E-3
3.383531458E0,-5.155147430E-3,8.409598027E-3,-8.932206631E-3,1.330718600E-2
3.393481458E0,-1.737518404E-3,1.350560635E-3,-1.881107748E-2,1.893936694E-2
3.403431458E0,1.989990212E-3,-5.222111754E-4,-1.446951985E-2,1.461505287E-2
3.413381458E0,-1.904862975E-3,-1.303074849E-3,5.087077618E-5,2.308483236E-3
3.423331458E0,1.460757810E-3,4.131514672E-4,-1.401986897E-2,1.410181667E-2
3.433281458E0,-6.550845830E-3,-9.050292978E-3,-9.978273511E-3,1.497956362E-2
3.443231458E0,-2.815329270E-3,-6.071241670E-3,-1.671368122E-2,1.800369946E-2
3.453180458E0,-2.527591442E-3,5.890293187E-4,-2.704337239E-2,2.716762162E-2
3.463130458E0,-5.322610773E-4,-2.834716444E-3,-3.692516685E-3,4.685466747E-3
3.473080458E0,-4.189895466E-3,-6.341515509E-3,-4.440960288E-3,8.802963777E-3
3.483030458E0,1.841041530E-3,-3.147862251E-3,-1.057819784E-2,1.118913491E-2
3.492980458E0,8.192716576E-3,-5.512508238E-3,-1.461979330E-2,1.764218547E-2
3.502930458E0,6.720369402E-4,-1.210286845E-3,-1.611668050E-2,1.617602604E-2
3.512880458E0,3.436751249E-3,-4.770501140E-3,-1.087816000E-2,1.236540761E-2
3.522830458E0,3.579304540E-3,8.344753319E-3,-1.611784995E-2,1.849949772E-2
3.532780458E0,-8.602624666E-3,1.049390657E-2,-1.432158530E-2,1.972904031E-2
3.542730458E0,-3.360075066E-3,-1.326237589E-2,-1.986123741E-2,2.411741010E-2
3.552680458E0,2.708448563E-3,-4.472663160E-3,-1.402396202E-2,1.496702777E-2
3.562629458E0,-7.498140447E-3,-4.313294557E-3,-1.372516930E-2,1.622365225E-2
3.572579458E0,5.396162351E-3,-1.215758103E-2,-9.084818959E-3,1.610773976E-2
3.582529458E0,6.024267515E-3,-6.294043427E-3,-1.656925499E-2,1.872022951E-2
3.592479458E0,7.820879342E-4,-2.209256231E-3,-1.477299035E-2,1.495773106E-2
3.602429458E0,1.529001212E-3,-2.891923226E-3,-1.357606530E-2,1.396462007E-2
3.612379458E0,-1.001107274E-3,4.728643298E-3,-1.237914026E-2,1.328929632E-2
3.622329458E0,1.512720371E-3,-1.224034654E-2,-1.162952721E-2,1.695170521E-2
3.632279458E0,1.935985694E-3,-4.434309080E-3,-1.926365197E-2,1.986200958E-2
3.642229458E0,2.941204291E-3,4.233306474E-3,-5.342016220E-3,7.423523670E-3
3.652179458E0,4.438361018E-3,-7.527604932E-4,-2.420162559E-2,2.461674995E-2
3.662129458E0,-4.772150237E-3,7.579699969E-3,-1.492034018E-2,1.740235101E-2
3.672078458E0,4.199981913E-3,-5.607128064E-3,-1.447127402E-2,1.607785760E-2
3.682028458E0,4.358414048E-3,-4.110478400E-3,-2.016061485E-2,2.103193279E-2
3.691978458E0,1.712626624E-3,-6.596865244E-3,-7.737035751E-3,1.031084105E-2
3.701928458E0,-1.006305814E-3,-5.645071012E-3,-1.357489586E-2,1.473625718E-2
3.711878458E0,-5.551287155E-3,2.498949221E-3,-1.342462242E-2,1.474048925E-2
3.721828458E0,-5.448147752E-3,3.967276434E-3,-9.981781840E-3,1.204398460E-2
3.731778458E0,1.703997413E-3,3.050460429E-3,-9.233338237E-3,9.872357925E-3
3.741728458E0,-1.956962580E-3,9.969493551E-3,-3.694855571E-3,1.081075677E-2
3.751678458E0,4.646732030E-3,4.395073350E-3,-1.237738609E-2,1.393228175E-2
3.761628458E0,3.245021962E-3,-4.532295624E-3,-1.282528281E-2,1.398426796E-2
3.771578458E0,-8.893532781E-3,-8.033270314E-3,-6.988592148E-3,1.387331170E-2
3.781528458E0,-8.173831897E-3,-2.727991054E-3,-1.881400108E-2,2.069347965E-2
3.791477458E0,-9.526544125E-3,-6.065814723E-3,-2.210598350E-2,2.482385259E-2
3.801427458E0,-6.011837614E-3,-2.409459413E-3,-2.674633384E-2,2.751933974E-2
3.811377458E0,-6.877102191E-4,1.703239102E-3,-2.285559654E-2,2.292928830E-2
3.821327458E0,-1.075516290E-2,-2.139436821E-3,-2.135929406E-2,2.400979304E-2
3.831277458E0,-7.467182181E-3,-9.943994209E-3,-1.522147179E-2,1.965540724E-2
3.841227458E0,-7.316552424E-3,2.999370382E-3,-1.312524498E-2,1.532319215E-2
3.851177458E0,-8.044809429E-3,-1.161672729E-3,6.467020512E-4,8.153935603E-3
3.861127458E0,3.109795963E-3,5.995415160E-3,-6.837149262E-3,9.610538170E-3
3.871077458E0,3.623350519E-3,2.027503755E-3,-1.147925377E-2,1.220707613E-2
3.881027458E0,7.955410983E-4,-6.476334943E-3,-1.103018761E-2,1.281564819E-2
3.890977458E0,3.723826697E-3,-9.175450802E-3,-1.522205651E-2,1.815948201E-2
3.900927458E0,4.430129235E-3,-1.708944705E-3,-1.836610436E-2,1.896998489E-2
3.910876458E0,2.566178497E-3,1.594736706E-5,-1.596991539E-2,1.617478667E-2
3.920826458E0,-1.232346380E-3,-5.151460944E-3,-1.522147179E-2,1.611674380E-2
3.930776458E0,1.085970929E-2,-2.607675456E-3,-2.090905845E-2,2.370489364E-2
3.940726458E0,-9.022025345E-4,-8.355566100E-3,-1.252649009E-2,1.508450888E-2
3.950676458E0,-5.365601513E-3,-2.815210498E-3,-1.462213218E-2,1.582788171E-2
3.960626458E0,-6.524962764E-3,5.387217938E-3,-4.743846059E-3,9.700584086E-3
3.970576458E0,-7.018038360E-3,-3.541877791E-3,-1.731828332E-2,1.901895628E-2
3.980526458E0,-4.770670161E-3,-4.275132339E-3,-1.492267907E-2,1.623953204E-2
3.990476458E0,-3.435357967E-3,2.218059031E-4,-9.981197119E-3,1.055818063E-2
4.000426458E0,4.402921409E-3,-7.779697585E-3,-1.147808433E-2,1.454839617E-2
4.010376458E0,6.118403119E-3,-2.533667064E-3,-1.671718955E-2,1.798106649E-2
4.020326458E0,5.927112373E-4,-3.274481879E-3,-2.001209557E-2,2.028688018E-2
4.030276458E0,7.840051814E-3,-7.674671542E-3,-1.103077233E-2,1.555779335E-2
4.040226458E0,-4.702851595E-4,-3.363560555E-3,-1.866489708E-2,1.897137557E-2
4.050175458E0,-5.100220148E-3,2.862668876E-4,-1.342696130E-2,1.436584436E-2
4.060125458E0,1.611410407E-3,1.111801005E-2,-1.477357507E-2,1.855977670E-2
4.070075458E0,1.240285803E-3,-8.022251967E-3,-1.761883020E-2,1.939891784E-2
4.080025458E0,-1.053914940E-3,-8.211925593E-3,-2.650542855E-3,8.693206317E-3
4.089975458E0,-1.454983684E-3,-2.431742786E-3,-1.133190393E-2,1.168085602E-2
4.099925458E0,3.236968336E-3,-4.171622917E-5,-1.028583705E-2,1.078323459E-2
4.109875458E0,-1.984654628E-3,-2.059352808E-3,-3.101947904E-3,4.219226087E-3
4.119825458E0,-6.567656575E-4,3.764021737E-3,-1.507763028E-2,1.555423208E-2
4.129775458E0,3.697313229E-3,2.886834322E-4,-1.642541349E-2,1.683887382E-2
4.139725458E0,-9.693938945E-3,-6.654268457E-3,-1.777261198E-2,2.131003232E-2
4.149675458E0,-4.480173178E-3,-4.020170895E-3,-6.695646644E-3,9.003633139E-3
4.159625458E0,-1.725718905E-3,-1.822892320E-3,-7.593778968E-3,7.997907299E-3
4.169575458E0,-2.601873921E-3,-9.596331557E-4,-2.354089022E-3,3.637633684E-3
4.179524458E0,1.987125990E-3,-5.073144799E-3,-2.801985741E-3,6.126711348E-3
4.189474458E0,-2.972276760E-3,-6.255926890E-4,-6.992100477E-3,7.623336831E-3
4.199424458E0,-5.419245148E-3,8.031369969E-3,-2.016470790E-2,2.237155708E-2
4.209374458E0,-7.110977112E-3,-2.241731118E-3,-1.477649868E-2,1.655102012E-2
4.219324458E0,-1.119854174E-2,-1.058226805E-2,-1.208151698E-2,1.957944807E-2
4.229274458E0,-1.225087610E-3,-5.168230576E-3,-1.627280116E-2,1.711769566E-2
4.239228250E0,-7.607392017E-3,-2.905444913E-3,-1.327902675E-2,1.557711702E-2
4.249178250E0,5.125788013E-3,2.207958880E-3,-7.739959359E-3,9.542313978E-3
4.259128250E0,-2.970312461E-3,-2.432852844E-4,-1.208034754E-2,1.244253754E-2
4.269078250E0,-6.102090301E-3,-5.095528672E-3,-1.252765954E-2,1.483718881E-2
4.279028250E0,2.952103866E-3,-4.222840872E-3,-2.255680382E-2,2.313777649E-2
4.288978250E0,-1.975376741E-3,-2.817033185E-4,-1.612018883E-2,1.624321268E-2
4.298928250E0,-4.483964732E-3,-1.024098708E-3,-8.036997914E-3,9.260024479E-3
4.308878250E0,-6.191653199E-5,1.309872237E-3,-1.058112144E-2,1.066206968E-2
4.318827250E0,4.970133305E-5,-7.938362695E-3,-1.566995323E-2,1.756608968E-2
4.328777250E0,-1.961530717E-3,1.597737973E-3,-1.986182213E-2,2.002229626E-2
4.338727250E0,-1.224155710E-3,5.826348402E-3,-1.761766076E-2,1.859642072E-2
4.348677250E0,2.113325349E-3,7.700070385E-3,-1.417540491E-2,1.626958304E-2
4.358627250E0,-4.722083453E-4,5.070833322E-3,-2.390517175E-2,2.444163595E-2
4.368577250E0,-3.481107862E-3,-3.397561200E-3,-1.133190393E-2,1.233181174E-2
4.378527250E0,1.805830328E-3,-1.282047713E-4,-1.327785730E-2,1.340070723E-2
4.388477250E0,-4.866358931E-3,-1.121446169E-2,-1.252941370E-2,1.750519374E-2
4.398427250E0,-1.952910642E-3,-1.911843088E-3,-2.050033808E-3,3.416378577E-3
4.408377250E0,-1.966998777E-3,-7.997574890E-4,-1.567170739E-2,1.581490148E-2
4.418327250E0,-3.406272638E-3,-3.510937798E-3,-1.926306725E-2,1.987448458E-2
4.428277250E0,7.086871052E-4,-6.843480701E-3,-2.255563438E-2,2.358160528E-2
4.438227250E0,7.051568488E-3,3.442995893E-3,-8.935130239E-3,1.189182035E-2
4.448177250E0,-3.113144408E-3,4.294167766E-3,-9.234507680E-3,1.064930406E-2
4.458127250E0,-4.328209525E-3,-1.694961637E-4,-9.533885121E-3,1.047172823E-2
4.468076250E0,-6.434467966E-3,-1.640587100E-3,-1.282762170E-2,1.444443777E-2
4.478026250E0,-3.979350021E-4,6.205229703E-3,-2.270707726E-2,2.354303689E-2
4.487976250E0,-6.079688156E-3,7.101708362E-3,-3.247543573E-3,9.896636246E-3
4.497926250E0,-1.272043493E-4,-1.324691274E-3,-3.247543573E-3,3.509633482E-3
4.507876250E0,5.242577009E-4,-1.600177358E-3,-4.444468617E-3,4.752758673E-3
4.517826250E0,-3.750783275E-3,-8.345721764E-3,-1.252707481E-2,1.551280279E-2
4.527776250E0,-7.246906604E-3,-1.126190637E-2,-1.327610314E-2,1.885744163E-2
4.537726250E0,7.970887832E-3,-1.120932254E-2,-1.177804649E-2,1.810818444E-2
4.547676250E0,-3.595740697E-3,6.854882771E-3,-1.252590537E-2,1.472470965E-2
4.557626250E0,-9.032769604E-3,-4.406525670E-3,-7.886724472E-3,1.277532066E-2
4.567576250E0,-2.085962207E-3,1.418648721E-3,-1.058053672E-2,1.087711174E-2
4.577526250E0,6.234123171E-3,-6.130198049E-3,-1.252649009E-2,1.527601302E-2
4.587476250E0,-5.185785927E-3,-2.296850262E-3,-1.087932944E-2,1.226897330E-2
4.597426250E0,3.256218466E-3,4.988405854E-6,-1.851345420E-2,1.879763203E-2
4.607376250E0,-3.911508615E-3,2.120606960E-3,-8.783102632E-3,9.845799376E-3
4.617325250E0,-2.738388134E-3,-1.638316736E-4,-1.267442465E-2,1.296790849E-2
4.627275250E0,2.439970002E-3,-8.986311648E-3,-1.791411459E-2,2.018966945E-2
4.637225250E0,1.197171723E-3,-6.952960677E-3,-4.443299174E-3,8.337852833E-3
4.647175250E0,2.084381632E-3,3.243834246E-4,-9.084818959E-3,9.326510972E-3
4.657125250E0,-2.294438286E-4,-9.653698225E-3,-1.207917809E-2,1.546457492E-2
4.667075250E0,-2.571893237E-3,4.072448658E-4,-1.701832116E-2,1.721637994E-2
4.677025250E0,1.740907962E-3,-7.209594059E-3,-5.492874384E-3,9.229337789E-3
4.686975250E0,-1.021458325E-3,-3.699327777E-3,-2.749828577E-2,2.776480008E-2
4.696925250E0,-3.773560007E-3,2.411492234E-3,6.480469108E-3,7.877279339E-3
4.706875250E0,-2.917911359E-3,-2.056474881E-3,-1.552377284E-2,1.592893024E-2
4.716825250E0,-5.890992112E-3,-5.700532766E-4,-2.780058682E-2,2.842360597E-2
4.726775250E0,-1.938649831E-2,6.637224737E-3,5.348565102E-2,5.727655658E-2
4.736725250E0,1.888084664E-2,-8.818866578E-3,-5.339092612E-2,5.731360894E-2
4.746675250E0,-2.821414028E-3,1.095905257E-3,-3.543003380E-2,3.555908718E-2
4.756625250E0,1.147259799E-2,8.316887682E-4,4.540070593E-2,4.683520375E-2
4.766575250E0,1.396789727E-2,-3.314224673E-3,-6.896206141E-2,7.044041562E-2
4.776524250E0,3.100586599E-3,1.249796664E-2,-2.949335575E-3,1.321027584E-2
4.786474250E0,3.907420589E-2,1.573540550E-4,3.237720251E-2,5.074545860E-2
4.796424250E0,8.267376749E-1,2.399546373E-1,-4.231980801E-2,8.618958042E-1
4.806374250E0,9.885619263E-1,6.555132935E-1,5.123447299E-2,1.187256220E0
4.816324250E0,-5.549578123E-1,2.070410989E-1,-3.379105926E-2,5.932841021E-1
4.826274250E0,-1.725079914E-1,-1.910196732E-2,-6.402116418E-3,1.736803943E-1
4.836224250E0,2.178678491E-2,1.634571229E-1,6.828612328E-2,1.784821830E-1
4.846174250E0,-4.062999557E-1,6.390458532E-3,1.001569569E-2,4.064736229E-1
4.856124250E0,-1.819626468E0,-4.172153917E-1,4.188945293E-1,1.913264695E0
4.866074250E0,-2.169690206E0,7.738624001E-1,-1.569807833E-1,2.308909173E0
4.876024250E0,-9.746318851E-1,5.916674362E-1,8.513581073E-1,1.422950559E0
4.885974250E0,3.044803979E-1,3.174010451E-1,1.082928312E0,1.168839367E0
4.895924250E0,1.623306056E0,6.254761467E-1,4.924203426E-1,1.807988041E0
4.905874250E0,2.357843957E0,1.498981607E-1,-9.260843539E-1,2.537622867E0
4.915824250E0,1.918259055E0,-3.257914341E-1,-5.303038681E-1,2.016700289E0
4.925773250E0,-1.016090764E-1,-1.640013342E-1,4.010371327E-2,1.970511351E-1
4.935723250E0,-1.412471393E0,-5.858471543E-3,1.675725467E0,2.191612557E0
4.945673250E0,-1.480402444E0,2.407207321E-1,2.559909258E0,2.966929942E0
4.955623250E0,-6.374826732E-1,5.326166611E-1,2.045460700E0,2.207707894E0
4.965573250E0,7.931034672E-1,-1.451921753E-1,1.118408048E0,1.378742339E0
4.975523250E0,1.153296848E0,-7.340796990E-1,1.679613281E0,2.165656344E0
4.985473250E0,9.630920396E-1,-8.275444445E-1,4.255877786E0,4.441269167E0
4.995423250E0,1.337436706E0,-1.062754688E0,5.434128578E0,5.696309144E0
5.005373250E0,1.639482670E0,-1.000636353E0,5.610097024E0,5.929786266E0
5.015323250E0,1.268417342E0,-1.079293025E0,4.730717306E0,5.015320749E0
5.025273250E0,8.089971495E-1,-1.691168841E0,3.280397324E0,3.778297902E0
5.035223250E0,-2.472560920E-2,-1.492489808E0,3.200670539E0,3.531632637E0
5.045173250E0,-6.193132545E-1,-7.349742499E-1,2.684104119E0,2.850991227E0
5.055123250E0,-8.446861419E-1,2.890787405E-1,3.253128834E0,3.373411983E0
5.065073250E0,-1.283933806E-1,1.159933804E0,4.364992678E0,4.518306360E0
5.075023250E0,7.468939452E-1,8.282515191E-1,5.470203559E0,5.582739303E0
5.084973250E0,1.286332772E0,1.912448823E-1,6.054769004E0,6.192855101E0
5.094923250E0,1.366227080E0,2.034380811E-1,5.974669166E0,6.132261828E0
5.104872250E0,5.538098212E-1,2.304723904E-1,5.923631744E0,5.953926090E0
5.114822250E0,-6.201939183E-1,2.469597843E-1,3.917390074E0,3.973861424E0
5.124772250E0,-1.233809280E0,-2.080763850E-1,3.024248933E0,3.272867661E0
5.134722250E0,-1.793727834E0,-4.018993047E-1,1.819535982E0,2.586444235E0
5.144672250E0,-1.811726148E0,-3.137554523E-1,1.569348242E0,2.417363859E0
5.154622250E0,-1.401686935E0,1.179529577E-2,2.366224918E0,2.750251944E0
5.164572250E0,-1.050881770E0,6.865052176E-1,4.137522540E0,4.323740820E0
5.174522250E0,-1.236355012E0,1.695735224E0,5.309012196E0,5.708739104E0
5.184472250E0,-1.692820241E0,1.822415151E0,5.747024197E0,6.262198054E0
5.194422250E0,-1.299853143E0,7.222884232E-1,6.367803787E0,6.539131734E0
5.204372250E0,-8.388374645E-1,-8.624643087E-1,5.476791033E0,5.607382009E0
5.214322250E0,-3.211098609E-1,-2.947817638E0,2.413082165E0,3.823049294E0
5.224272250E0,-4.756295512E-1,-5.242825808E0,5.797742361E-1,5.296185806E0
5.234222250E0,-1.516776657E0,-3.924626003E0,-5.931655294E-1,4.249134740E0
5.244168125E0,-2.228525620E0,-9.419104278E-2,-8.903087497E-2,2.232291399E0
5.254118125E0,-3.036452656E0,1.146315638E0,-1.227353954E0,3.469939770E0
5.264068125E0,-1.736153810E0,-3.921037567E-1,-9.972578323E-1,2.040220231E0
5.274018125E0,-4.992365880E-1,-1.963500279E0,-2.114891124E-1,2.036982611E0
5.283967125E0,6.602968276E-2,-1.265162051E0,1.156877464E-1,1.272155096E0
5.293917125E0,-6.390858335E-1,1.487888342E-1,4.782227182E-1,8.119518385E-1
5.303867125E0,-1.370775191E0,2.102091569E-1,1.074941601E0,1.754625874E0
5.313817125E0,-1.082347611E0,6.493976176E-2,1.104394026E0,1.547701421E0
5.323767125E0,-5.547390899E-1,-1.738628644E-1,8.873769557E-1,1.060849478E0
5.333717125E0,-7.304778142E-1,-8.223804760E-1,8.532748246E-1,1.392115444E0
5.343667125E0,-7.360466293E-1,-1.123493956E0,2.603502005E-2,1.343384208E0
5.353617125E0,-7.954801411E-1,-1.543397130E0,-6.204272953E-1,1.843852864E0
5.363567125E0,-7.150111248E-1,-1.428554891E0,-1.199508344E0,1.997706248E0
5.373517125E0,9.014100540E-1,-5.346801581E0,-1.581980859E0,5.648317508E0
5.383467125E0,-1.720956165E-1,-1.410781109E-1,-8.008460578E-1,8.311885123E-1
5.393417125E0,-8.991338061E-1,7.708910644E-1,-2.585630283E0,2.843975843E0
5.403367125E0,-6.089677759E-1,-3.800335248E0,-1.121119694E0,4.008777759E0
5.413317125E0,-8.161090448E-2,-1.145889961E0,-1.832932538E-1,1.163323068E0
5.423267125E0,-2.836510625E-1,6.223869896E-1,-7.799168265E-1,1.037349385E0
5.433217125E0,-9.884687363E-1,-1.217273355E-2,5.165503398E-1,1.115366698E0
5.443167125E0,-6.129644939E-1,-4.839658535E-1,4.775700228E-1,9.154351669E-1
5.453117125E0,-4.165720153E-1,-6.860035264E-1,5.908786833E-2,8.047511779E-1
5.463067125E0,-2.895756076E-1,-1.116168564E0,-6.463558960E-1,1.321916124E0
5.473016125E0,-4.335273327E-1,-1.405869448E0,-1.338925992E0,1.989255555E0
5.482966125E0,-4.903337637E-1,-1.545351854E0,-1.584230722E0,2.266787712E0
5.492916125E0,2.693666071E-3,-1.805850574E0,-1.107813039E0,2.118573407E0
5.502866125E0,6.987130344E-3,-1.841623254E0,-6.467874205E-1,1.951911627E0
5.512816125E0,-2.223028068E-1,-2.018433700E0,-4.673183189E-1,2.083717723E0
5.522766125E0,1.128305045E-1,-2.192322292E0,-7.435817899E-1,2.317740631E0
5.532716125E0,6.687631573E-1,-2.454439521E0,-1.088028692E0,2.766825611E0
5.542666125E0,8.476942420E-1,-2.922088135E0,-1.308606863E0,3.312044160E0
5.552616125E0,3.499925481E-1,-2.840779093E0,-1.273276232E0,3.132691016E0
5.562566125E0,5.388472348E-2,-2.507154509E0,-9.385892824E-1,2.677625280E0
5.572516125E0,2.235089412E-1,-3.098358883E0,-7.210161421E-1,3.188988600E0
5.582466125E0,2.932644698E-1,-2.920670185E0,-3.553663951E-1,2.956789417E0
5.592416125E0,7.640666328E-1,-2.775332378E0,-2.040082212E-1,2.885807856E0
5.602366125E0,1.197554351E0,-3.160468592E0,7.164297324E-2,3.380507486E0
5.612316125E0,1.436435037E0,-3.368345879E0,2.954550926E-1,3.673743770E0
5.622266125E0,1.407187118E0,-2.972348462E0,1.879488069E-1,3.293987814E0
5.632216125E0,8.439312664E-1,-3.041047983E0,-4.735075235E-2,3.156332510E0
5.642166125E0,4.429667853E-1,-3.567326628E0,-3.492524368E-1,3.611650053E0
5.652116125E0,2.792089328E-2,-3.436750701E0,-6.606078994E-1,3.499776815E0
5.662066125E0,-1.830586343E-1,-3.250909815E0,-1.014151608E0,3.410341416E0
5.672015125E0,1.463553692E-1,-3.254402942E0,-1.185275052E0,3.466617278E0
5.681965125E0,7.109802005E-1,-3.417446119E0,-1.362499480E0,3.747110307E0
5.691915125E0,9.665964952E-1,-3.723419804E0,-1.545674036E0,4.145753495E0
5.701865125E0,8.231976244E-1,-3.036579541E0,-1.005318804E0,3.302898051E0
5.711815125E0,3.781805129E-1,-2.342718526E0,-8.767467177E-1,2.529829125E0
5.721765125E0,1.805503249E-2,-2.264672230E0,-3.221312964E-1,2.287539042E0
5.731715125E0,9.169749767E-2,-1.675740085E0,-1.645897651E-1,1.686298626E0
5.741665125E0,1.085911269E-1,-1.580970168E0,9.138146480E-2,1.587327716E0
5.751615125E0,2.689233881E-1,-1.388188637E0,1.950327086E-1,1.427384055E0
5.761565125E0,4.555168104E-1,-1.239154220E0,7.991039713E-2,1.322642967E0
5.771515125E0,5.398503247E-1,-1.261462517E0,-8.952085337E-2,1.375041832E0
5.781465125E0,7.270151661E-1,-1.317315121E0,-2.060769296E-1,1.518663189E0
5.791415125E0,9.642766124E-1,-1.016172405E0,-9.744034052E-2,1.404254380E0
5.801365125E0,1.061208538E0,-1.086616151E0,9.922724962E-3,1.518880075E0
5.811315125E0,1.010861964E0,-6.997971082E-1,-2.241005698E-2,1.229658536E0
5.821265125E0,6.206437884E-1,-4.816141033E-1,-1.029694494E-1,7.923090080E-1
5.831215125E0,2.401105021E-1,-6.875577164E-1,-1.842375426E-1,7.512204328E-1
5.841165125E0,3.444623977E-2,-6.191926557E-1,-2.709927543E-1,6.767740843E-1
5.851115125E0,-5.375155315E-2,-5.644013214E-1,-3.238152945E-1,6.529122652E-1
5.861065125E0,1.451792018E-1,-6.318641567E-1,-2.833852883E-1,7.075567361E-1
5.871015125E0,4.320155351E-1,-6.542057830E-1,-2.540720451E-1,8.241208850E-1
5.880965125E0,4.560547543E-1,-4.365425956E-1,-1.957331685E-1,6.609590380E-1
5.890914125E0,3.647895120E-1,-5.094936275E-1,-1.284667997E-1,6.396552690E-1
5.900864125E0,2.295577396E-1,-2.397305793E-1,-3.074407518E-1,4.524238304E-1
5.910814125E0,-8.774200246E-2,-5.426157653E-2,-2.222000786E-1,2.449813311E-1
5.920764125E0,1.089336276E-3,-4.684292167E-1,2.841392320E-2,4.692914540E-1
5.930714125E0,1.809372644E-1,-1.920009273E-1,-1.350882598E-1,2.963975163E-1
5.940664125E0,4.185773179E-1,1.000856209E-1,-2.093583870E-1,4.785969460E-1
5.950614125E0,4.846473464E-1,-3.021841049E-1,1.410067749E-1,5.882866599E-1
5.960564125E0,5.747614181E-1,1.394040531E-1,1.515095619E-1,6.105238121E-1
5.970514125E0,4.871572638E-1,2.174509335E-1,3.710994617E-1,6.498629998E-1
5.980464125E0,4.283486000E-1,2.680445516E-1,5.452891123E-1,7.434182005E-1
5.990414125E0,3.228448029E-1,3.286281377E-1,7.064348674E-1,8.433714730E-1
6.000364125E0,2.110836080E-1,4.531884491E-1,6.820835531E-1,8.456796281E-1
6.010314125E0,7.569820002E-2,3.391063482E-1,6.253737473E-1,7.154129274E-1
6.020264125E0,2.870484410E-1,1.228792369E-1,6.159714246E-1,6.905917102E-1
6.030214125E0,7.043346937E-1,-1.026934791E-1,4.441334144E-1,8.389802150E-1
6.040164125E0,7.584220232E-1,-1.505371517E-1,1.607317356E-1,7.897468520E-1
6.050114125E0,5.757148066E-1,-7.474495769E-2,-7.911513012E-2,5.859125797E-1
6.060064125E0,4.382072979E-1,2.544813502E-1,-2.479091163E-1,5.641323635E-1
6.070014125E0,5.631908016E-1,2.108839256E-1,-8.472262820E-2,6.073169130E-1
6.079964125E0,7.319725817E-1,1.008925366E-1,3.466779077E-1,8.161793529E-1
6.089914125E0,8.328475767E-1,3.581641781E-1,6.141681433E-1,1.095043000E0
6.099864125E0,8.223554792E-1,5.978918338E-1,8.267156017E-1,1.310420492E0
6.109814125E0,6.883915293E-1,5.766389591E-1,9.352890408E-1,1.296595919E0
6.119763125E0,6.251496528E-1,4.403128803E-1,7.885274363E-1,1.098391114E0
6.129713125E0,5.414553854E-1,3.366335607E-1,5.295752684E-1,8.288220879E-1
6.139663125E0,4.076417090E-1,2.606115711E-1,3.304495819E-1,5.859070576E-1
6.149613125E0,4.679308878E-1,1.391473603E-1,2.219989709E-1,5.362880259E-1
6.159563125E0,7.241650870E-1,-7.371760190E-2,2.073973040E-1,7.568771365E-1
6.169513125E0,9.769757415E-1,-1.542325920E-1,3.489548500E-1,1.048827335E0
6.179463125E0,1.027015921E0,-9.581130624E-2,5.961400080E-1,1.191354027E0
6.189413125E0,8.366185923E-1,2.131719410E-2,7.263796469E-1,1.108157247E0
6.199363125E0,6.542883749E-1,4.662569761E-2,6.392502864E-1,9.159192988E-1
6.209313125E0,6.914373440E-1,-2.066721761E-1,5.506860924E-1,9.077742899E-1
6.219263125E0,8.413333485E-1,-3.546979487E-1,3.531694134E-1,9.789693931E-1
6.229213125E0,7.823178394E-1,-4.901165396E-1,2.096870005E-1,9.466805493E-1
6.239163125E0,7.163172466E-1,-5.603971481E-1,1.252508676E-1,9.180648894E-1
6.249117250E0,7.927317305E-1,-5.449324322E-1,1.174588680E-1,9.691086306E-1
6.259067250E0,8.344155076E-1,-5.050362951E-1,3.015900278E-1,1.020915003E0
6.269017250E0,7.361455203E-1,-2.929671389E-1,5.418134543E-1,9.598446701E-1
6.278967250E0,5.972598229E-1,-1.515206534E-1,6.734016804E-1,9.127692082E-1
6.288917250E0,4.411412115E-1,-1.135383099E-1,7.123195052E-1,8.455149873E-1
6.298867250E0,3.954569156E-1,-1.959062827E-1,6.278401029E-1,7.674298916E-1
6.308817250E0,6.403348719E-1,-5.074605507E-1,5.638153573E-1,9.926896372E-1
6.318767250E0,7.800092856E-1,-7.000906384E-1,4.748909748E-1,1.150679289E0
6.328717250E0,6.772734873E-1,-6.365197098E-1,3.312717370E-1,9.867105357E-1
6.338667250E0,5.515060913E-1,-5.297536451E-1,2.170742997E-1,7.949334216E-1
6.348617250E0,5.348892546E-1,-4.762469441E-1,1.301145816E-1,7.279062239E-1
6.358566250E0,5.335946810E-1,-4.509565669E-1,5.770478256E-2,7.010099506E-1
6.368516250E0,4.984997658E-1,-4.856299710E-1,7.057340786E-2,6.995134674E-1
6.378466250E0,4.810102321E-1,-5.499054891E-1,1.627771282E-1,7.485073706E-1
6.388416250E0,5.286703022E-1,-6.702201372E-1,2.531845108E-1,8.903873973E-1
6.398366250E0,6.212271213E-1,-8.601400405E-1,3.306448424E-1,1.111346048E0
6.408316250E0,6.133028284E-1,-8.739967722E-1,3.405709295E-1,1.120713735E0
6.418266250E0,6.126799538E-1,-8.325727576E-1,3.835900645E-1,1.102585806E0
6.428216250E0,6.092469804E-1,-8.477983224E-1,4.792424726E-1,1.148745936E0
6.438166250E0,4.107367133E-1,-7.621746200E-1,4.812748186E-1,9.905757165E-1
6.448116250E0,1.087296329E-1,-8.298397690E-1,3.653280406E-1,9.131926152E-1
6.458066250E0,4.190429024E-2,-1.012160046E0,2.282576112E-1,1.038424511E0
6.468016250E0,2.147588023E-1,-1.381997021E0,1.303972945E-1,1.404649623E0
6.477966250E0,3.014344188E-1,-1.609667718E0,4.933880568E-3,1.637656012E0
6.487916250E0,2.986234429E-1,-1.601399170E0,-9.709199265E-2,1.631895253E0
6.497866250E0,3.332516773E-1,-1.678043303E0,-6.003796779E-2,1.711867567E0
6.507816250E0,2.229648944E-1,-1.692419268E0,1.117625105E-1,1.710697864E0
6.517766250E0,3.712850377E-2,-1.625763348E0,2.724697244E-1,1.648855585E0
6.527716250E0,-1.474089644E-1,-1.712491005E0,4.068000023E-1,1.766307189E0
6.537666250E0,-1.876988384E-1,-1.830310062E0,4.170012009E-1,1.886572495E0
6.547616250E0,-1.064101886E-2,-1.921945871E0,2.979029929E-1,1.944925540E0
6.557566250E0,2.525899952E-1,-1.943553087E0,7.315341868E-2,1.961262790E0
6.567516250E0,3.436193754E-1,-1.976861751E0,-1.263162303E-1,2.010475677E0
6.577466250E0,1.515200686E-1,-1.918327029E0,-2.600993550E-1,1.941800349E0
6.587416250E0,-1.844364393E-1,-1.973940482E0,-3.242128321E-1,2.008873263E0
6.597366250E0,-4.778076390E-1,-2.140334698E0,-3.914429482E-1,2.227680484E0
6.607316250E0,-7.504988998E-1,-2.290830919E0,-4.874822959E-1,2.459429586E0
6.617265250E0,-7.791772999E-1,-2.349163327E0,-5.620099564E-1,2.538019069E0
6.627215250E0,-6.096134181E-1,-2.303495404E0,-6.156765787E-1,2.461052060E0
6.637165250E0,-4.532066121E-1,-2.241347687E0,-5.155968051E-1,2.344115132E0
6.647115250E0,-4.864350961E-1,-1.929869433E0,-3.098767018E-1,2.014209200E0
6.657065250E0,-7.775975284E-1,-1.557053887E0,-1.016773061E-1,1.743391235E0
6.667015250E0,-1.159746912E0,-1.301077988E0,3.602126040E-2,1.743305585E0
6.676965250E0,-1.307367838E0,-1.417017750E0,1.059925512E-1,1.930902480E0
6.686915250E0,-1.184850690E0,-1.672367996E0,5.361436285E-2,2.050258611E0
6.696865250E0,-1.037534989E0,-1.698331972E0,-1.826318606E-1,1.998540652E0
6.706815250E0,-1.007245534E0,-1.710394778E0,-3.382368672E-1,2.013553586E0
6.716765250E0,-1.041431135E0,-1.848582610E0,-3.192287385E-1,2.145633581E0
6.726715250E0,-1.154385015E0,-1.869163055E0,-2.879368524E-1,2.215690168E0
6.736665250E0,-1.408614862E0,-2.040782928E0,-4.259813547E-2,2.480081730E0
6.746615250E0,-1.568068433E0,-2.081166138E0,-2.602396516E-1,2.618743168E0
6.756565250E0,-1.536221719E0,-1.934351324E0,-4.655705130E-1,2.513652346E0
6.766515250E0,-1.634234648E0,-2.116530683E0,-7.354943597E-1,2.773333188E0
6.776465250E0,-1.598287428E0,-1.929496381E0,-9.734795451E-1,2.687962316E0
6.786415250E0,-1.395012631E0,-1.162708308E0,-1.164446100E0,2.157286622E0
6.796365250E0,-1.235967195E0,-6.657633895E-1,-9.308790708E-1,1.684455889E0
6.806315250E0,-9.427380281E-1,-6.177220809E-1,-5.168131721E-1,1.239932020E0
6.816265250E0,-8.118834083E-1,-1.170383363E0,3.752567589E-2,1.424907036E0
6.826215250E0,-7.749426732E-1,-1.520017038E0,1.109859912E-1,1.709767772E0
6.836165250E0,-1.121675252E0,-1.530308138E0,-2.399223497E-1,1.912475124E0
6.846115250E0,-1.798484105E0,-1.399449790E0,-5.544358752E-1,2.345293997E0
6.856065250E0,-2.046880258E0,-1.380557436E0,-5.593650780E-1,2.531510797E0
6.866015250E0,-1.534627330E0,-8.915723330E-1,-3.930627000E-1,1.817823025E0
6.875964250E0,-1.076746563E0,-1.064435323E0,2.127415860E-1,1.528942347E0
6.885914250E0,-8.862757789E-1,-1.720928537E0,9.530634069E-1,2.157639832E0
6.895864250E0,-1.016491225E0,-1.861486246E0,1.212541276E0,2.443080392E0
6.905814250E0,-1.150215220E0,-1.322303966E0,4.972612524E-1,1.821744105E0
6.915764250E0,-1.656693657E0,-4.200019920E-1,-7.058015408E-1,1.849105557E0
6.925714250E0,-2.234481010E0,6.483918965E-2,-1.388696176E0,2.631650921E0
6.935664250E0,-2.410908170E0,3.924779785E-1,-1.802200157E0,3.035530032E0
6.945614250E0,-2.015772048E0,3.332304811E-1,-1.623274189E0,2.609482438E0
6.955564250E0,-1.021271470E0,-1.179968119E-2,-1.131361969E0,1.524176680E0
6.965514250E0,-2.962672160E-1,-6.182699651E-1,-4.784630388E-3,6.856055029E-1
6.975464250E0,-8.563790018E-2,-7.088801730E-1,8.153813589E-1,1.083831957E0
6.985414250E0,-4.936410950E-1,-2.173123544E-1,8.823674999E-1,1.034155982E0
6.995364250E0,-1.440068643E0,2.305557132E-3,7.546097848E-1,1.625804090E0
7.005314250E0,-2.221628976E0,1.748522133E-1,3.152536552E-1,2.250687333E0
7.015264250E0,-2.592431180E0,4.680111408E-2,-2.710595222E-1,2.606983512E0
7.025214250E0,-2.819980547E0,6.673684502E-1,-5.271620129E-1,2.945432179E0
7.035164250E0,-2.696116054E0,1.189980306E0,-7.018022646E-1,3.029458916E0
7.045114250E0,-1.934831088E0,1.046697795E0,-5.705303729E-2,2.200545992E0
7.055064250E0,-1.153756659E0,9.333892804E-1,6.259336182E-1,1.610640516E0
7.065014250E0,-8.418761893E-1,1.600561849E0,1.049570532E0,2.090969166E0
7.074964250E0,-8.835873022E-1,1.862665629E0,1.177415809E0,2.374143583E0
7.084914250E0,-1.143557434E0,1.674105204E0,1.035192229E0,2.276395130E0
7.094864250E0,-1.725796637E0,1.580652664E0,7.191970003E-1,2.448281275E0
7.104814250E0,-2.416449577E0,1.135536296E0,4.460361350E-1,2.706957604E0
7.114764250E0,-2.823967763E0,3.412926221E-1,7.116040984E-1,2.932175809E0
7.124714250E0,-2.486450104E0,2.925946712E-1,2.539837521E-1,2.516456538E0
7.134664250E0,-2.057689275E0,4.304264081E-1,9.645116705E-1,2.312927757E0
7.144614250E0,-1.367866786E0,9.720171565E-1,1.080010259E0,1.995569858E0
7.154564250E0,-7.642209993E-1,2.059503374E0,3.422091731E-1,2.223217263E0
7.164514250E0,-7.293751024E-1,2.166005729E0,4.630030006E-2,2.285981753E0
7.174463250E0,-1.218298518E0,1.583392085E0,-5.104797605E-1,2.062030882E0
7.184413250E0,-1.905834161E0,1.664713991E-1,-6.798075244E-1,2.030284425E0
7.194363250E0,-2.480027522E0,-2.932518983E-1,-7.951546705E-1,2.620840349E0
7.204313250E0,-2.877624153E0,3.751912701E-1,-1.044394284E0,3.084193359E0
7.214263250E0,-2.033458121E0,1.059660487E0,-8.289504075E-1,2.438235234E0
7.224213250E0,-3.546694435E-1,1.562393564E0,-1.132868797E-1,1.606143823E0
7.234163250E0,8.756356736E-1,2.040070152E0,7.006461239E-1,2.327988198E0
7.244113333E0,1.344984000E0,2.489095969E0,1.234320912E0,3.086766725E0
7.254063333E0,1.152097146E0,2.604820552E0,1.625501685E0,3.279431913E0
7.264013333E0,5.370815950E-1,2.543456948E0,1.731300328E0,3.123304454E0
7.273963333E0,-3.372372126E-1,1.959226549E0,1.413707056E0,2.439439535E0
7.283913333E0,-1.515220713E0,1.533079718E0,6.205693826E-1,2.243063439E0
7.293863333E0,-2.568431283E0,1.484230909E0,-2.995408711E-1,2.981527357E0
7.303813333E0,-2.693936212E0,1.671521904E0,-6.404431915E-1,3.234415754E0
7.313763333E0,-1.536689789E0,1.874835439E0,-4.323416635E-1,2.462385580E0
7.323713333E0,-5.131512071E-1,2.098472727E0,2.767016467E-1,2.177952191E0
7.333663333E0,1.553780615E-1,2.437074460E0,8.434427315E-1,2.583576960E0
7.343613333E0,4.314491592E-1,2.036496919E0,1.263309653E0,2.435039909E0
7.353563333E0,3.046506798E-1,2.087118019E0,1.157784952E0,2.406104664E0
7.363513333E0,-3.320575297E-1,2.087883419E0,9.570202178E-1,2.320647986E0
7.373463333E0,-8.721711984E-1,1.962562385E0,7.697894490E-1,2.281427078E0
7.383413333E0,-9.342104488E-1,2.078626692E0,5.573156655E-1,2.346068805E0
7.393363333E0,-3.500966285E-1,2.034122949E0,6.623836988E-1,2.167712155E0
7.403313333E0,3.216382299E-1,2.012568943E0,1.051477309E0,2.293357676E0
7.413263333E0,8.346287848E-1,2.213442435E0,1.356946380E0,2.727129645E0
7.423213333E0,1.024244779E0,2.230336211E0,1.507636144E0,2.880354791E0
7.433163333E0,1.029341651E0,1.867578460E0,1.457745945E0,2.583102162E0
7.443113333E0,5.722393678E-1,1.588220131E0,1.352817661E0,2.163334625E0
7.453063333E0,-8.935429908E-2,1.552375529E0,1.353502954E0,2.061510180E0
7.463013333E0,-4.020125945E-1,1.651276504E0,1.372994063E0,2.184820569E0
7.472963333E0,-2.475940610E-1,1.525295904E0,1.431357461E0,2.106327277E0
7.482913333E0,2.658378124E-1,1.442511025E0,1.383773405E0,2.016515965E0
7.492863333E0,6.964552052E-1,1.486800175E0,1.243862398E0,2.059810253E0
7.502813333E0,8.239613438E-1,1.389914151E0,1.270239773E0,2.055305993E0
7.512763333E0,7.068479001E-1,1.463429439E0,1.184620748E0,2.011115609E0
7.522713333E0,7.079485653E-1,1.344498827E0,1.050983219E0,1.847548103E0
7.532662333E0,6.639335033E-1,1.194932313E0,9.335699594E-1,1.655362135E0
7.542612333E0,5.829548290E-1,1.248553619E0,8.404963195E-1,1.614049732E0
7.552562333E0,6.645956274E-1,1.372598791E0,7.895343268E-1,1.717288340E0
7.562512333E0,1.013305150E0,1.574818313E0,8.788043529E-1,2.068607535E0
7.572462333E0,1.523450815E0,1.686448091E0,1.102290782E0,2.525876980E0
7.582412333E0,1.782371372E0,1.730334368E0,1.388710209E0,2.845948133E0
7.592362333E0,1.738192734E0,1.831692343E0,1.425760506E0,2.899862728E0
7.602312333E0,1.438267993E0,1.675557067E0,1.325300664E0,2.575369518E0
7.612262333E0,9.935675814E-1,1.538217081E0,1.206586398E0,2.192974935E0
7.622212333E0,6.130621424E-1,1.296768590E0,1.288007999E0,1.927801487E0
7.632162333E0,5.335985548E-1,9.897564393E-1,1.439986782E0,1.826994023E0
7.642112333E0,4.188028011E-1,9.168726504E-1,1.443476108E0,1.760589253E0
7.652062333E0,4.612708361E-1,9.877666318E-1,1.430130131E0,1.798256348E0
7.662012333E0,8.047005424E-1,9.170761335E-1,1.473919344E0,1.913376552E0
7.671962333E0,9.779729111E-1,8.926300943E-1,1.489351315E0,1.992833872E0
7.681912333E0,8.170676228E-1,1.119440081E0,1.515099822E0,2.053356536E0
7.691862333E0,5.191439454E-1,1.174082311E0,1.524368244E0,1.992906985E0
7.701812333E0,2.650697806E-1,1.061585975E0,1.536681895E0,1.886429966E0
7.711762333E0,3.314679842E-1,9.281618696E-1,1.473705628E0,1.772896996E0
7.721712333E0,6.586514211E-1,7.909528613E-1,1.397060910E0,1.735283063E0
7.731662333E0,1.238982166E0,6.588040334E-1,1.261861297E0,1.887165466E0
7.741612333E0,1.796608172E0,5.729253924E-1,1.172022337E0,2.220288447E0
7.751562333E0,1.977162006E0,5.820219058E-1,1.170081354E0,2.370023095E0
7.761512333E0,1.777724589E0,7.757781672E-1,1.040533075E0,2.201100988E0
7.771462333E0,1.474472929E0,6.848878777E-1,9.344648758E-1,1.875197704E0
7.781412333E0,1.154556266E0,4.732987779E-1,8.434035552E-1,1.506101411E0
7.791362333E0,9.020210150E-1,3.469579893E-1,7.616659123E-1,1.230510756E0
7.801312333E0,8.750378689E-1,1.306297213E-1,7.289241359E-1,1.146335811E0
7.811262333E0,1.013634275E0,-1.533145791E-1,7.753694469E-1,1.285362822E0
7.821212333E0,1.166464120E0,-2.793431264E-1,7.881464902E-1,1.435216366E0
7.831162333E0,1.393692037E0,-2.968257165E-1,8.989790010E-1,1.684828254E0
7.841112333E0,1.402356733E0,-1.462353551E-1,1.034833210E0,1.748962252E0
7.851062333E0,1.056554154E0,1.490478659E-1,1.119674554E0,1.546671605E0
7.861012333E0,5.596889041E-1,3.467428118E-1,1.126544448E0,1.304831269E0
7.870962333E0,5.551219364E-1,8.398472786E-2,1.150019265E0,1.279749236E0
7.880912333E0,1.075985913E0,-3.642727643E-1,1.067363901E0,1.558751433E0
7.890862333E0,1.331937107E0,-6.362951767E-1,8.547132397E-1,1.705714728E0
7.900812333E0,1.449259297E0,-8.025245011E-1,5.974649870E-1,1.761068566E0
7.910762333E0,1.488131586E0,-9.022569501E-1,3.694960821E-1,1.779081386E0
7.920712333E0,1.454448408E0,-8.750837696E-1,2.666385886E-1,1.718222312E0
7.930662333E0,1.438811784E0,-8.371476191E-1,4.886126357E-1,1.734859589E0
7.940612333E0,1.155784619E0,-5.361826587E-1,9.426957089E-1,1.584930639E0
7.950562333E0,7.861268619E-1,-3.037494045E-1,1.284846117E0,1.536583447E0
7.960512333E0,7.728630379E-1,-3.130049622E-1,1.599319754E0,1.803638838E0
7.970461333E0,1.195323784E0,-6.119742680E-1,1.761206498E0,2.214759531E0
7.980411333E0,1.432737404E0,-9.459730732E-1,1.691626532E0,2.410228588E0
7.990361333E0,1.209634844E0,-1.144639826E0,1.342717180E0,2.139230286E0
8.000311333E0,9.169007170E-1,-1.229808031E0,7.588025308E-1,1.711407607E0
8.010261333E0,7.599556017E-1,-1.398654569E0,1.809843345E-1,1.602036969E0
8.020211333E0,9.041771758E-1,-1.678503479E0,-2.592281199E-1,1.924086670E0
8.030161333E0,1.297434296E0,-1.778721247E0,-4.214269584E-1,2.241603379E0
8.040111333E0,1.606490048E0,-1.688120980E0,9.943117127E-2,2.332477069E0
8.050061333E0,1.630801894E0,-1.457705015E0,7.085579183E-1,2.299233144E0
8.060011333E0,1.352001097E0,-1.262018003E0,1.224428592E0,2.218067128E0
8.069961333E0,9.518884090E-1,-1.070093089E0,1.552670229E0,2.112338894E0
8.079911333E0,5.217134312E-1,-9.487002146E-1,1.531719071E0,1.875734606E0
8.089861333E0,3.470003816E-1,-1.097419467E0,1.339891806E0,1.766365988E0
8.099811333E0,4.218728086E-1,-1.271391090E0,9.782701689E-1,1.658741840E0
8.109761333E0,5.209307814E-1,-1.557266141E0,7.050315356E-1,1.787041180E0
8.119711333E0,7.493250713E-1,-1.983557398E0,4.898107302E-1,2.176212895E0
8.129661333E0,8.994157881E-1,-2.280544497E0,1.113877223E-1,2.454025099E0
8.139611333E0,9.505894500E-1,-2.405203627E0,-1.484380013E-1,2.590493897E0
8.149561333E0,1.059317256E0,-2.356503922E0,-2.040830290E-1,2.591700921E0
8.159511333E0,1.065997699E0,-2.167631255E0,-1.733664358E-1,2.421782871E0
8.169461333E0,7.927769002E-1,-1.900790060E0,1.941275597E-2,2.059581249E0
8.179411333E0,6.636887974E-1,-1.623961236E0,1.977914250E-1,1.765461516E0
8.189361333E0,8.341801572E-1,-1.415476424E0,4.053944778E-1,1.692269105E0
8.199311333E0,1.168084822E0,-1.449656907E0,6.108165193E-1,1.959342778E0
8.209261333E0,1.318945471E0,-1.459027070E0,6.336042881E-1,2.066357070E0
8.219211333E0,1.261253772E0,-1.562312872E0,5.225060578E-1,2.074751833E0
8.229161333E0,1.152179811E0,-1.724171988E0,2.922543998E-1,2.094206292E0
8.239111333E0,1.010215408E0,-1.717540076E0,6.835278153E-2,1.993778119E0
8.249060708E0,1.005677530E0,-1.918760308E0,1.140147849E-1,2.169338099E0
8.259010708E0,8.582353100E-1,-1.954154089E0,1.908039292E-1,2.142823416E0
8.268960708E0,5.927594402E-1,-1.745850540E0,2.321694716E-1,1.858295059E0
8.278910708E0,5.725858153E-1,-1.696423441E0,3.214776508E-1,1.819080781E0
8.288860708E0,5.778889476E-1,-1.527233672E0,4.405398253E-1,1.691293488E0
8.298810708E0,6.161123425E-1,-1.362149817E0,5.421982741E-1,1.590291014E0
8.308760708E0,6.809990408E-1,-1.393751678E0,5.971059680E-1,1.662178983E0
8.318710708E0,4.542333466E-1,-1.495135381E0,4.646992048E-1,1.630246329E0
8.328660708E0,9.248424053E-2,-1.609998670E0,2.272543021E-1,1.628586372E0
8.338610708E0,1.616755128E-4,-1.759052968E0,9.279765129E-2,1.761499013E0
8.348560708E0,1.475556564E-1,-1.778351703E0,8.853853941E-3,1.784484756E0
8.358510708E0,1.951578391E-1,-1.747409992E0,4.925577521E-2,1.758964012E0
8.368460708E0,1.616088545E-1,-1.747944428E0,1.199112634E-1,1.759490226E0
8.378410708E0,5.414448604E-2,-1.696328132E0,1.500805572E-1,1.703814817E0
8.388360708E0,-1.548325163E-1,-1.636456736E0,2.019534731E-1,1.656124682E0
8.398310708E0,-4.507609776E-1,-1.582047225E0,2.506430916E-1,1.663995445E0
8.408260708E0,-7.819803089E-1,-1.537111958E0,2.556392451E-1,1.743432763E0
8.418210708E0,-1.025105928E0,-1.420231379E0,1.825981660E-1,1.761034192E0
8.428160708E0,-9.884289752E-1,-1.284270751E0,1.433773823E-1,1.626929708E0
8.438110708E0,-7.089984329E-1,-1.227612401E0,1.873553145E-1,1.429969580E0
8.448060708E0,-6.206088513E-1,-1.187584117E0,2.434640265E-1,1.361905325E0
8.458010708E0,-7.665326960E-1,-1.244398003E0,2.434171025E-1,1.481671573E0
8.467960708E0,-9.198234478E-1,-1.317873530E0,1.018071143E-1,1.610351050E0
8.477910708E0,-1.021277025E0,-1.507871202E0,-6.077829838E-2,1.822189980E0
8.487860708E0,-1.248095929E0,-1.496359788E0,-3.247999656E-1,1.975431872E0
8.497810708E0,-1.472511188E0,-1.298085383E0,-6.281722248E-1,2.061047114E0
8.507760708E0,-1.534079884E0,-1.067879918E0,-7.554662557E-1,2.016059988E0
8.517710708E0,-1.518579646E0,-9.189636147E-1,-7.043590327E-1,1.909633450E0
8.527660708E0,-1.488041685E0,-8.757468438E-1,-5.079417765E-1,1.799779275E0
8.537610708E0,-1.333265156E0,-8.508464760E-1,-2.539154859E-1,1.601876642E0
8.547560708E0,-1.330112922E0,-7.218311709E-1,7.420562513E-2,1.515172300E0
8.557509708E0,-1.847103119E0,-3.416177273E-1,2.269572636E-1,1.892089375E0
8.567459708E0,-2.526378400E0,1.856490970E-2,5.710873201E-2,2.527091982E0
8.577409708E0,-3.017615559E0,1.975183600E-1,-2.779368711E-1,3.036818412E0
8.587359708E0,-2.929468783E0,1.393724781E-1,-5.578897159E-1,2.985373171E0
8.597309708E0,-2.081506885E0,-2.073060143E-1,-5.993360960E-1,2.175971151E0
8.607259708E0,-1.294559658E0,-5.211553144E-1,-5.238637447E-1,1.490610879E0
8.617209708E0,-1.160836614E0,-4.476575679E-1,-4.382627734E-1,1.319095599E0
8.627159708E0,-1.233057328E0,-1.296625918E-1,-4.436024507E-1,1.316824171E0
8.637109708E0,-1.430836182E0,1.290445411E-1,-3.887323252E-1,1.488306922E0
8.647059708E0,-1.555001368E0,2.857475817E-1,-3.063554355E-1,1.610445462E0
8.657009708E0,-1.447193037E0,4.975734937E-1,-1.134733327E-1,1.534543341E0
8.666959708E0,-1.223233275E0,8.025478899E-1,8.212765217E-2,1.465308061E0
8.676909708E0,-8.519939920E-1,8.836283058E-1,2.986570644E-1,1.263284919E0
8.686859708E0,-5.469878747E-1,8.412699062E-1,4.947317469E-1,1.118789655E0
8.696809708E0,-3.062264313E-1,7.522460479E-1,5.039575569E-1,9.558357405E-1
8.706759708E0,-2.799098678E-1,6.251310879E-1,2.825479122E-1,7.409262675E-1
8.716709708E0,-5.186395499E-1,5.351377612E-1,9.868857488E-3,7.452897427E-1
8.726659708E0,-6.517708562E-1,4.586006320E-1,-2.396411169E-1,8.321944806E-1
8.736609708E0,-7.046450347E-1,2.970976120E-1,-3.531869551E-1,8.423376052E-1
8.746559708E0,-7.238278489E-1,1.481199127E-1,-3.226084292E-1,8.061900905E-1
8.756509708E0,-5.793400803E-1,1.040096873E-1,-1.534986933E-1,6.082884123E-1
8.766459708E0,-2.934020256E-1,2.408485669E-1,3.914126158E-3,3.796157283E-1
8.776409708E0,-1.837135224E-1,3.946215677E-1,6.104142308E-2,4.395485131E-1
8.786359708E0,-1.653639364E-1,5.050982755E-1,4.803370714E-2,5.336447662E-1
8.796309708E0,-2.085812920E-1,5.060502023E-1,-3.633459806E-3,5.473629186E-1
8.806259708E0,-1.960683967E-1,3.394215131E-1,-4.867463507E-2,3.949924048E-1
8.816209708E0,-2.219218607E-1,1.796615481E-1,-1.755405036E-1,3.351746598E-1
8.826159708E0,-3.123187914E-1,7.579628706E-2,-2.771041545E-1,4.243522323E-1
8.836109708E0,-1.820407802E-1,6.015615463E-3,-3.240070101E-1,3.716928515E-1
8.846059708E0,1.150952773E-1,-1.081647187E-1,-2.789449310E-1,3.205570211E-1
8.856009708E0,3.060660714E-1,-4.622867167E-2,-2.252815977E-1,3.828385148E-1
8.865959708E0,4.292307986E-1,-2.533949375E-2,-1.348414707E-1,4.506255548E-1
8.875909708E0,3.790973563E-1,-2.368414700E-2,-5.613802113E-2,3.839625266E-1
8.885859708E0,1.102536365E-1,8.159672499E-2,-6.945395842E-3,1.373394642E-1
8.895809708E0,-1.839286999E-1,1.076940179E-1,2.260416627E-2,2.143331903E-1
8.905759708E0,-2.884997199E-1,2.176918387E-2,3.891205072E-2,2.919248764E-1
8.915709708E0,-9.755479977E-2,-5.839438856E-2,6.897609472E-2,1.329832516E-1
8.925659708E0,2.585482349E-1,-1.694511402E-1,1.120163162E-1,3.287986219E-1
8.935609708E0,4.781581065E-1,-2.846471357E-1,9.257549364E-2,5.641182400E-1
8.945559708E0,5.212016536E-1,-2.544445127E-1,-5.094445109E-2,5.822271987E-1
8.955509708E0,4.036550774E-1,-2.394756407E-1,-1.822927952E-1,5.035043864E-1
8.965459708E0,2.529970345E-1,-2.842916250E-1,-2.899341881E-1,4.784256065E-1
8.975409708E0,1.758728448E-1,-2.760148913E-1,-3.634886527E-1,4.891211285E-1
8.985359708E0,3.315276258E-1,-3.458838558E-1,-3.453750750E-1,5.906184477E-1
8.995309708E0,6.305631512E-1,-4.235413116E-1,-2.611927112E-1,8.032551044E-1
9.005259708E0,9.511611615E-1,-3.943601972E-1,-1.313284636E-1,1.038014781E0
9.015209708E0,1.313886460E0,-3.716864491E-1,-5.354997039E-2,1.366497730E0
9.025159708E0,1.459499087E0,-2.358696628E-1,7.023909330E-2,1.480103244E0
9.035109708E0,1.402292560E0,-2.363386095E-2,3.364148748E-1,1.442275269E0
9.045059708E0,1.234698350E0,1.934510368E-1,4.635450375E-1,1.332958109E0
9.055009708E0,9.911790669E-1,2.355352020E-1,4.851599280E-1,1.128402822E0
9.064959708E0,9.477019487E-1,9.628142238E-2,4.512424227E-1,1.054053519E0
9.074909708E0,1.085654138E0,-4.732210100E-2,3.649445363E-1,1.146328401E0
9.084859708E0,1.093518351E0,-1.655323362E-1,3.052761491E-1,1.147334679E0
9.094809708E0,1.073190213E0,-2.531598794E-1,2.425342461E-1,1.129003994E0
9.104759708E0,1.217993147E0,-4.092992485E-1,1.884370494E-1,1.298669204E0
9.114709708E0,1.236495930E0,-5.164518142E-1,1.348637267E-1,1.346786132E0
9.124659708E0,1.165792860E0,-4.925875729E-1,1.152450391E-1,1.270825294E0
9.134609708E0,1.117967460E0,-4.460256100E-1,2.256346965E-1,1.224622841E0
9.144559708E0,1.051713244E0,-3.181364787E-1,3.171751964E-1,1.143639660E0
9.154509708E0,9.154004677E-1,-2.543451101E-1,3.519579434E-1,1.013175131E0
9.164459708E0,7.978398581E-1,-2.610173678E-1,3.594295156E-1,9.131637762E-1
9.174409708E0,8.328079619E-1,-3.903934461E-1,3.241018081E-1,9.752015823E-1
9.184359708E0,8.923153679E-1,-5.343583274E-1,2.408982682E-1,1.067612998E0
9.194309708E0,8.361478914E-1,-5.347728950E-1,7.430056930E-2,9.953119713E-1
9.204259708E0,7.819551659E-1,-5.454627746E-1,-5.739502631E-2,9.551322992E-1
9.214209708E0,8.123345210E-1,-5.624501055E-1,-1.085232262E-1,9.939893288E-1
9.224159708E0,8.452566840E-1,-4.595063657E-1,-8.261998773E-2,9.656246808E-1
9.234109708E0,8.107733144E-1,-3.367124981E-1,7.964145262E-2,8.815165538E-1
9.244059875E0,7.690114769E-1,-2.231402743E-1,3.056060052E-1,8.570678293E-1
9.254009875E0,7.621524006E-1,-2.518407476E-1,4.338025904E-1,9.124060123E-1
9.263959875E0,6.853017144E-1,-3.832124805E-1,4.384441102E-1,8.992905441E-1
9.273909875E0,6.261056726E-1,-5.222925979E-1,2.953557265E-1,8.671982912E-1
9.283859875E0,6.157885529E-1,-6.517312413E-1,1.355572430E-1,9.068213269E-1
9.293809875E0,6.375401951E-1,-7.191116309E-1,3.614171304E-2,9.617095516E-1
9.303759875E0,5.087900613E-1,-6.076455742E-1,-9.575758494E-2,7.982919174E-1
9.313709875E0,3.769718935E-1,-5.542686814E-1,-9.451549016E-2,6.769451658E-1
9.323659875E0,4.041889282E-1,-6.718690521E-1,1.982564248E-2,7.843275903E-1
9.333609875E0,3.961655250E-1,-7.841817856E-1,1.053423408E-1,8.848645121E-1
9.343559875E0,1.614201356E-1,-7.842127758E-1,1.267957020E-1,8.106314132E-1
9.353509875E0,9.273245484E-3,-8.481994414E-1,8.764976263E-2,8.527665369E-1
9.363459875E0,1.362108886E-2,-8.912548292E-1,-8.884332553E-3,8.914031837E-1
9.373409875E0,-4.710838526E-2,-8.227125978E-1,-1.901410011E-1,8.457120189E-1
9.383359875E0,-8.645225286E-2,-7.489119655E-1,-3.139569620E-1,8.166468625E-1
9.393309875E0,3.956372291E-3,-6.882728308E-1,-2.969836644E-1,7.496228648E-1
9.403259875E0,1.130662934E-1,-7.039451230E-1,-1.033987264E-1,7.204262762E-1
9.413209875E0,1.699578014E-1,-7.344810373E-1,3.177376986E-2,7.545578976E-1
9.423159875E0,1.942696470E-1,-8.453629571E-1,9.503713489E-2,8.725888390E-1
9.433109875E0,2.475825128E-1,-9.770820147E-1,7.761952199E-2,1.010945673E0
9.443059875E0,1.514667128E-1,-9.660717076E-1,-3.557679892E-2,9.785205251E-1
9.453009875E0,5.479484260E-2,-9.341605282E-1,-1.479976328E-1,9.473973119E-1
9.462959875E0,1.997382554E-1,-1.003457635E0,-1.890381432E-1,1.040460482E0
9.472909875E0,4.086833905E-1,-1.049692154E0,-1.595131394E-1,1.137681930E0
9.482859875E0,5.675318476E-1,-1.148841636E0,-2.973773282E-2,1.281722994E0
9.492809875E0,6.660054642E-1,-1.302309996E0,1.205122840E-1,1.467684508E0
9.502759875E0,6.841327829E-1,-1.442073069E0,1.966091180E-1,1.608187659E0
9.512709875E0,5.472387933E-1,-1.566314707E0,1.611984531E-1,1.666972405E0
9.522659875E0,2.969857840E-1,-1.619009814E0,-7.027183771E-3,1.646038492E0
9.532609875E0,7.795295946E-2,-1.479633828E0,-2.811621952E-1,1.508126357E0
9.542559875E0,-1.197020061E-2,-1.349923289E0,-4.341803205E-1,1.418079237E0
9.552509875E0,1.934443856E-1,-1.369674599E0,-4.062797463E-1,1.441697773E0
9.562459875E0,4.713394491E-1,-1.473566757E0,-2.710792565E-1,1.570682599E0
9.572409875E0,6.159907204E-1,-1.630520058E0,-7.245518804E-2,1.744502789E0
9.582359875E0,7.401475009E-1,-1.822411643E0,8.559852283E-2,1.968839665E0
9.592309875E0,7.071217690E-1,-1.906781702E0,8.362570882E-2,2.035394535E0
9.602259875E0,3.440897839E-1,-1.839640464E0,-1.991674941E-2,1.871649404E0
9.612209875E0,-1.230104704E-1,-1.787152348E0,-1.309554112E-1,1.796161020E0
9.622159875E0,-3.205551063E-1,-1.554303356E0,-2.689578867E-1,1.609643701E0
9.632109875E0,-2.940889272E-1,-1.381754946E0,-2.443492949E-1,1.433681138E0
9.642059875E0,-8.479518849E-2,-1.320513548E0,-7.836401872E-3,1.323256462E0
9.652009875E0,1.139955622E-1,-1.348909382E0,2.066686312E-1,1.369402582E0
9.661959875E0,6.158938028E-2,-1.422180256E0,3.134095895E-1,1.457606087E0
9.671909875E0,-1.840458635E-1,-1.525049736E0,3.132259870E-1,1.567724497E0
9.681859875E0,-4.320061430E-1,-1.730887515E0,1.961062574E-1,1.794730777E0
9.691809875E0,-8.040917742E-1,-1.729563705E0,-6.553441445E-2,1.908467697E0
9.701759875E0,-9.461653005E-1,-1.306006021E0,-3.940532184E-1,1.660168197E0
9.711709875E0,-6.539479208E-1,-6.397725159E-1,-4.627112246E-1,1.025211409E0
9.721659875E0,-2.528730187E-1,-4.113896281E-1,-8.448700368E-2,4.902287664E-1
9.731609875E0,7.358227540E-2,-5.032131332E-1,5.233380800E-1,7.297400597E-1
9.741559875E0,1.358146027E-1,-3.721963263E-1,8.136383039E-1,9.049767959E-1
9.751509875E0,-2.297686414E-1,-1.340415716E-1,8.459014857E-1,8.867412785E-1
9.761459875E0,-5.748771930E-1,-1.843574470E-1,7.611034101E-1,9.714678874E-1
9.771409875E0,-8.092746730E-1,-4.279927969E-1,4.931629390E-1,1.039862017E0
9.781359875E0,-1.300980632E0,-5.991910851E-1,2.131865225E-1,1.448112238E0
9.791309875E0,-1.876895998E0,-6.727876496E-1,-2.137157321E-3,1.993837099E0
9.801259875E0,-2.205050511E0,-6.432919550E-1,1.709689312E-3,2.296970879E0
9.811209875E0,-1.920990144E0,-4.762364191E-1,-2.848623498E-1,1.999537651E0
9.821159875E0,-1.735015357E0,-5.263552433E-1,-2.069096096E-1,1.824867041E0
9.831109875E0,-1.582036993E0,-7.992880672E-1,-1.116998722E-1,1.776000935E0
9.841059875E0,-1.682993118E0,-4.275788140E-1,-1.499969421E-1,1.742925288E0
9.851009875E0,-1.746503089E0,-4.003413141E-1,-4.006102860E-2,1.792247498E0
9.860959875E0,-1.946230820E0,-6.369699454E-1,2.027814388E-3,2.047815721E0
9.870909875E0,-2.428952532E0,-4.407198465E-1,-6.461414494E-2,2.469457303E0
9.880859875E0,-2.417958304E0,-2.528499770E-1,-4.424653865E-2,2.431545440E0
9.890809875E0,-1.847188050E0,-5.738574386E-2,3.009795785E-2,1.848324295E0
9.900759875E0,-1.266522990E0,7.863511026E-2,2.858896691E-1,1.300767799E0
9.910709875E0,-8.119681929E-1,1.247333890E-1,7.218171376E-1,1.093558752E0
9.920659875E0,-8.116777325E-1,3.803800893E-1,1.005551523E0,1.347087087E0
9.930609875E0,-1.149835735E0,4.200481850E-1,1.160365328E0,1.686715860E0
9.940559875E0,-1.549323137E0,7.911750555E-2,1.273993685E0,2.007416666E0
9.950509875E0,-1.952935529E0,4.485983849E-2,1.065784861E0,2.225279074E0
9.960459875E0,-2.051193018E0,1.538174397E-1,4.721041918E-1,2.110434782E0
9.970409875E0,-1.800481514E0,4.367753148E-2,2.098552541E-1,1.813196249E0
9.980359875E0,-1.392792443E0,3.765846616E-1,3.343364820E-2,1.443192504E0
9.990309875E0,-1.049367341E0,6.257918233E-1,4.590266016E-1,1.305179162E0
1.000025987E1,-4.193826988E-1,7.991149896E-1,7.947053120E-1,1.202507026E0
1.001020988E1,-4.986093280E-1,9.662342602E-1,1.412863888E0,1.782807974E0
1.002015988E1,-6.347649604E-1,5.407528424E-1,1.673302820E0,1.869567468E0
1.003010987E1,-9.764753661E-1,1.805468166E-1,1.375879518E0,1.696804568E0
1.004005987E1,-1.537783803E0,-1.237194818E-1,7.459445035E-1,1.713627362E0
1.005000988E1,-2.195652574E0,-4.580966020E-1,1.432518134E-1,2.247501681E0
1.005995988E1,-2.831044648E0,9.874660850E-2,-5.577717483E-1,2.887156736E0
1.006990987E1,-2.822950932E0,8.781056106E-1,-1.171465098E0,3.180008161E0
1.007985987E1,-2.159693952E0,1.007787498E0,-8.116636992E-1,2.517679799E0
1.008980988E1,-1.076615366E0,1.056807631E0,-5.077730843E-1,1.591784068E0
1.009975988E1,-8.901016121E-1,1.449672695E0,-9.023657084E-2,1.703518254E0
1.010970988E1,-8.109743855E-1,7.798098224E-1,5.498692364E-1,1.252253565E0
1.011965987E1,-8.028987229E-1,1.570468569E-1,9.326645181E-1,1.240634184E0
1.012960988E1,-1.165342186E0,2.745998651E-1,6.447572672E-1,1.359830662E0
1.013955988E1,-2.076115313E0,5.213137740E-1,2.994832760E-1,2.161414601E0
1.014950988E1,-2.625970224E0,6.692915994E-1,-1.110894960E-1,2.712196847E0
1.015945987E1,-2.529556654E0,5.742901325E-1,-4.562605762E-1,2.633750128E0
1.016940988E1,-2.072672619E0,4.475230819E-1,-6.654672280E-1,2.222407552E0
1.017935988E1,-1.238290733E0,3.010865825E-1,-6.425242156E-1,1.427184093E0
1.018930988E1,-6.290676527E-1,3.556276560E-3,-6.603737184E-1,9.120483577E-1
1.019925987E1,-7.086363441E-1,1.764596128E-1,-6.206717089E-1,9.584032728E-1
1.020920987E1,-1.203450975E0,3.573403054E-1,-7.362816873E-1,1.455368361E0
1.021915988E1,-1.637760227E0,3.091721123E-1,-7.714202374E-1,1.836555237E0
1.022910988E1,-1.551587179E0,-2.384143710E-2,-7.963194358E-1,1.744166228E0
1.023905987E1,-1.051680792E0,1.264442843E-1,-7.727387846E-1,1.311162032E0
1.024900587E1,-1.808748819E-1,3.585109180E-1,-7.077116069E-1,8.136962086E-1
1.025895588E1,5.068062107E-1,2.711032301E-1,-4.393425348E-1,7.234440956E-1
1.026890588E1,8.428181027E-1,2.433523446E-1,-1.248219743E-1,8.860830904E-1
1.027885588E1,7.731164416E-1,4.818246031E-1,-8.676186293E-2,9.150910344E-1
1.028880587E1,2.031970662E-1,9.303972602E-1,-2.937819484E-1,9.966122329E-1
1.029875588E1,-5.202195407E-1,1.140326335E0,-4.250835148E-1,1.323506145E0
1.030870588E1,-1.269564419E0,1.101624784E0,-4.990072310E-1,1.753390771E0
1.031865588E1,-2.062147338E0,1.160781650E0,-6.491134429E-1,2.453816200E0
1.032860587E1,-2.298545589E0,1.255600099E0,-6.767099619E-1,2.705139517E0
1.033855588E1,-1.190569705E0,1.262948880E0,-4.965344435E-1,1.805281848E0
1.034850588E1,1.695029977E-1,1.352094945E0,-1.173170730E-1,1.367719014E0
1.035845588E1,8.327631576E-1,1.679763554E0,2.581209496E-1,1.892544980E0
1.036840587E1,9.093043799E-1,1.790957716E0,5.939516875E-1,2.094550692E0
1.037835588E1,5.265701285E-1,1.929047315E0,6.385671124E-1,2.099111145E0
1.038830588E1,-1.439904629E-1,1.897615607E0,4.803894040E-1,1.962766472E0
1.039825588E1,-9.078278849E-1,1.552718761E0,1.517235518E-1,1.805022730E0
1.040820587E1,-1.584573369E0,1.262946541E0,-8.909227073E-2,2.028261363E0
1.041815587E1,-1.374008847E0,1.509969183E0,-1.463704258E-1,2.046785662E0
1.042810588E1,-3.142977085E-1,1.290566449E0,1.966506332E-1,1.342764417E0
1.043805588E1,5.779458848E-1,1.508936564E0,5.596715087E-1,1.710012631E0
1.044800587E1,8.959451001E-1,1.875453490E0,8.337597424E-1,2.239463937E0
1.045795587E1,9.383966897E-1,1.979186604E0,9.088724899E-1,2.371458868E0
1.046790588E1,4.888031819E-1,2.096571797E0,9.438382548E-1,2.350611091E0
1.047785588E1,-5.296919569E-3,2.052551034E0,9.155096644E-1,2.247476752E0
1.048780588E1,-2.801867335E-1,1.747654406E0,8.914091957E-1,1.981769634E0
1.049775587E1,-1.721565738E-1,1.591600406E0,7.868925548E-1,1.783824440E0
1.050770588E1,1.543479283E-1,1.639937584E0,9.030036396E-1,1.878465899E0
1.051765588E1,6.269192395E-1,1.729917462E0,1.134165709E0,2.161474962E0
1.052760588E1,8.941087089E-1,1.858605323E0,1.264217141E0,2.419109156E0
1.053755587E1,8.645382430E-1,1.973530592E0,1.240351730E0,2.486105747E0
1.054750588E1,7.481497078E-1,1.821184312E0,1.193222002E0,2.302220457E0
1.055745588E1,5.289790352E-1,1.600311588E0,9.163820690E-1,1.918481716E0
1.056740588E1,1.099343055E-1,1.352652184E0,6.662989944E-1,1.511855758E0
1.057735587E1,1.639336344E-1,1.187333272E0,4.799043775E-1,1.291101369E0
1.058730588E1,6.592568272E-1,1.286741200E0,5.161255395E-1,1.535157338E0
1.059725588E1,1.165021320E0,1.501371437E0,9.218170559E-1,2.112140514E0
1.060720588E1,1.551723273E0,1.793103059E0,1.385622879E0,2.746454889E0
1.061715587E1,1.505192300E0,2.036520308E0,1.751539296E0,3.079108431E0
1.062710587E1,1.175837426E0,2.162852325E0,1.854010581E0,3.081862922E0
1.063705588E1,7.837265068E-1,1.935830669E0,1.760123008E0,2.731245251E0
1.064700588E1,5.337060705E-1,1.552470254E0,1.470599587E0,2.204012070E0
1.065695587E1,3.604719280E-1,1.279981234E0,1.212790879E0,1.799764898E0
1.066690587E1,4.982498704E-1,9.679597735E-1,1.044513567E0,1.508710592E0
1.067685588E1,8.234454001E-1,8.397350121E-1,9.709251890E-1,1.525094404E0
1.068680588E1,1.218422186E0,9.699823254E-1,9.934781921E-1,1.847272923E0
1.069675588E1,1.518064214E0,1.175258771E0,1.170085739E0,2.248299974E0
1.070670587E1,1.589294118E0,1.254830605E0,1.318902640E0,2.416600881E0
1.071665588E1,1.457724603E0,1.237490687E0,1.483218171E0,2.419975281E0
1.072660588E1,1.119528959E0,1.181262692E0,1.485498000E0,2.203504243E0
1.073655588E1,7.812467757E-1,1.081933701E0,1.335307004E0,1.887848472E0
1.074650587E1,8.212054780E-1,9.841881359E-1,1.190301318E0,1.749234676E0
1.075645588E1,1.376361767E0,9.108576196E-1,1.135886545E0,2.003564713E0
1.076640588E1,1.907635103E0,8.066473728E-1,1.307923616E0,2.449574628E0
1.077635588E1,2.083776774E0,6.233283913E-1,1.582073245E0,2.689538934E0
1.078630587E1,1.829072352E0,5.876270467E-1,1.701556712E0,2.566341064E0
1.079625588E1,1.382992363E0,6.884248585E-1,1.716268306E0,2.309149965E0
1.080620588E1,9.444584982E-1,5.785059750E-1,1.684741874E0,2.016191013E0
1.081615588E1,7.099471436E-1,3.236854863E-1,1.591726121E0,1.772678563E0
1.082610587E1,6.592386277E-1,1.366997159E-1,1.368548425E0,1.525190864E0
1.083605587E1,8.665294392E-1,7.724113405E-2,1.027321584E0,1.346190588E0
1.084600588E1,1.315437873E0,4.298931420E-2,7.414415628E-1,1.510615924E0
1.085595588E1,1.714593371E0,-9.778824985E-2,6.317039430E-1,1.829875089E0
1.086590587E1,1.970696593E0,-2.791577697E-1,7.559023118E-1,2.129075487E0
1.087585587E1,1.826478966E0,-2.251166332E-1,8.961808160E-1,2.046910591E0
1.088580588E1,1.298362541E0,-3.047978103E-2,9.445872831E-1,1.605901442E0
1.089575588E1,8.127413410E-1,1.809216231E-1,8.742566809E-1,1.207313491E0
1.090570588E1,6.992612109E-1,8.309595108E-2,9.021204177E-1,1.144417942E0
1.091565587E1,1.173786735E0,-1.566638643E-1,9.425164917E-1,1.513491395E0
1.092560588E1,1.747160170E0,-3.812600952E-1,8.690845263E-1,1.988274587E0
1.093555588E1,1.772908238E0,-5.618876034E-1,6.869004893E-1,1.982612817E0
1.094550588E1,1.509719799E0,-7.342752153E-1,3.603074750E-1,1.717042643E0
1.095545587E1,1.348653566E0,-8.558259648E-1,1.501904118E-1,1.604325928E0
1.096540588E1,1.222596221E0,-9.169141656E-1,2.254661505E-1,1.544767974E0
1.097535588E1,7.904137480E-1,-6.661791265E-1,6.133179581E-1,1.201959833E0
1.098530588E1,8.553657889E-1,-4.325775987E-1,8.844135869E-1,1.304209111E0
1.099525587E1,1.206665044E0,-4.796728277E-1,1.122492912E0,1.716425614E0
1.100520588E1,1.503840424E0,-7.507017982E-1,1.360196554E0,2.162226601E0
1.101515588E1,1.623012526E0,-9.732772315E-1,1.379111858E0,2.341663457E0
1.102510588E1,1.492833917E0,-1.101913052E0,1.060617092E0,2.137211757E0
1.103505587E1,1.257139378E0,-1.296901907E0,6.102721435E-1,1.906511490E0
1.104500587E1,1.035469094E0,-1.469070248E0,8.383562386E-2,1.799275424E0
1.105495588E1,8.381094861E-1,-1.590039200E0,-2.907118678E-1,1.820759610E0
1.106490588E1,7.765339199E-1,-1.649615895E0,-4.659665157E-1,1.881850771E0
1.107485587E1,8.798501274E-1,-1.589538678E0,-2.668774474E-1,1.836298730E0
1.108480587E1,1.086348056E0,-1.405299345E0,1.670742470E-1,1.784077395E0
1.109475588E1,1.416271937E0,-1.207792094E0,6.650523680E-1,1.976583567E0
1.110470588E1,1.753971445E0,-1.168455536E0,1.117668959E0,2.385558231E0
1.111465587E1,1.924690554E0,-1.092577972E0,1.313200582E0,2.573452180E0
1.112460587E1,1.655115786E0,-9.707295996E-1,1.274171879E0,2.303310270E0
1.113455588E1,1.229661266E0,-9.374764842E-1,1.069910510E0,1.880329090E0
1.114450588E1,8.708869305E-1,-1.092971490E0,7.844612094E-1,1.602626005E0
1.115445588E1,5.448526177E-1,-1.257017464E0,4.984423169E-1,1.457875860E0
1.116440587E1,5.959993824E-1,-1.479247327E0,2.595876505E-1,1.615788868E0
1.117435588E1,9.673744673E-1,-1.762754840E0,1.584273114E-1,2.016982201E0
1.118430588E1,1.313156874E0,-1.932834556E0,1.194298913E-1,2.339763641E0
1.119425588E1,1.259735835E0,-1.892164832E0,7.071220614E-2,2.274252040E0
1.120420587E1,1.069731878E0,-1.758313880E0,4.404057048E-2,2.058624192E0
1.121415588E1,9.404122250E-1,-1.565277411E0,3.542512945E-1,1.860097445E0
1.122410588E1,8.567283364E-1,-1.091030214E0,6.868350736E-1,1.547925318E0
1.123405588E1,9.334226096E-1,-8.018392074E-1,9.536533910E-1,1.556816840E0
1.124400587E1,1.130026904E0,-7.711688071E-1,1.144048088E0,1.783397925E0
1.125396008E1,1.447716655E0,-8.189504993E-1,1.181203635E0,2.040050358E0
1.126391008E1,1.601938722E0,-1.006761312E0,1.079928691E0,2.178536661E0
1.127386008E1,1.480844640E0,-1.216122038E0,7.731211925E-1,2.066293792E0
1.128381008E1,1.250814884E0,-1.446513444E0,3.464633149E-1,1.943444326E0
1.129376008E1,1.134760078E0,-1.882188898E0,-1.304139590E-1,2.201663753E0
1.130371008E1,8.943339729E-1,-2.084444672E0,-4.643835282E-1,2.315252666E0
1.131366008E1,7.552531247E-1,-2.116092727E0,-6.403589916E-1,2.336303779E0
1.132361008E1,7.027509753E-1,-2.137028098E0,-4.371074367E-1,2.291682992E0
1.133356008E1,7.326599219E-1,-1.936266872E0,-1.914963126E-2,2.070334917E0
1.134351008E1,8.487859172E-1,-1.684864665E0,4.565880203E-1,1.941051028E0
1.135346008E1,7.457468677E-1,-1.535806274E0,9.025937498E-1,1.931195169E0
1.136341008E1,5.534258053E-1,-1.369718453E0,1.092853961E0,1.837590417E0
1.137336008E1,2.724539369E-1,-1.243455432E0,1.043695250E0,1.646120388E0
1.138331008E1,-3.643473163E-2,-1.228868968E0,8.077226758E-1,1.471007257E0
1.139326008E1,-2.472391351E-1,-1.376338670E0,4.810761960E-1,1.478806827E0
1.140321008E1,-1.912834740E-1,-1.719566136E0,1.213250836E-1,1.734421183E0
1.141316008E1,-4.427073151E-2,-2.026502273E0,-2.451983472E-1,2.041762374E0
1.142311008E1,1.082211444E-1,-2.191520054E0,-4.592028952E-1,2.241726849E0
1.143306008E1,1.365253226E-1,-2.252860270E0,-4.532024459E-1,2.302044964E0
1.144301008E1,-2.181585927E-1,-2.051999057E0,-2.003700105E-1,2.073268300E0
1.145296008E1,-5.349248495E-1,-1.610055388E0,-6.885209721E-2,1.697988092E0
1.146291008E1,-7.414085260E-1,-1.265045691E0,-1.568186693E-3,1.466297945E0
1.147286008E1,-7.948020103E-1,-1.195641580E0,-8.593068123E-3,1.435737742E0
1.148281008E1,-7.341548357E-1,-1.106380910E0,-1.045458770E-1,1.331912865E0
1.149276008E1,-7.151861027E-1,-1.036587959E0,-2.100086705E-1,1.276757377E0
1.150271008E1,-7.933014686E-1,-1.200934480E0,-1.723302726E-1,1.449575306E0
1.151266008E1,-9.692501809E-1,-1.243836086E0,-1.246041290E-1,1.581802867E0
1.152261108E1,-1.228041295E0,-1.220235554E0,-9.124930859E-2,1.733605106E0
1.153256108E1,-1.665849812E0,-1.177095382E0,-1.770876038E-1,2.047429890E0
1.154251108E1,-1.960822692E0,-1.147344164E0,-2.568295920E-1,2.286303939E0
1.155246108E1,-1.661229343E0,-1.183288168E0,-4.708178774E-1,2.093208850E0
1.156241108E1,-1.482671456E0,-1.037282023E0,-6.736718217E-1,1.930829451E0
1.157236108E1,-1.465918306E0,-8.921588087E-1,-6.354847527E-1,1.829946636E0
1.158231108E1,-1.565323896E0,-7.478138584E-1,-3.714000086E-1,1.774092002E0
1.159226108E1,-1.852289745E0,-4.389604193E-1,-9.093662873E-3,1.903613996E0
1.160221108E1,-2.465846562E0,-1.222407210E-1,2.617495123E-1,2.482711193E0
1.161216108E1,-3.265776361E0,5.494687021E-2,4.506858408E-1,3.297185486E0
1.162211108E1,-3.218722063E0,-1.334252751E-1,6.126068636E-1,3.279216551E0
1.163206108E1,-2.355792900E0,-3.846953344E-1,5.170178246E-1,2.442346847E0
1.164201108E1,-1.858522000E0,-3.895561248E-1,2.678936934E-1,1.917713490E0
1.165196108E1,-1.728924458E0,-4.232623994E-1,6.337453522E-2,1.781108412E0
1.166191108E1,-1.464519652E0,-4.836144358E-1,-5.345400296E-2,1.543229751E0
1.167186108E1,-1.358332608E0,-4.603846174E-1,1.693857244E-1,1.444199776E0
1.168181108E1,-1.830009807E0,-2.774076980E-1,5.811817340E-1,1.940016271E0
1.169176108E1,-2.381475479E0,1.861005020E-1,7.482834629E-1,2.503195357E0
1.170171108E1,-2.537353916E0,5.056812429E-1,8.567376188E-1,2.725413320E0
1.171166108E1,-2.288181253E0,5.763635552E-1,1.005875386E0,2.565103056E0
1.172161108E1,-1.881161250E0,7.590019208E-1,9.231105331E-1,2.228673287E0
1.173156108E1,-1.672435093E0,8.307601207E-1,7.214668894E-1,2.001928068E0
1.174151108E1,-1.512118619E0,7.097227567E-1,5.103882515E-1,1.746626828E0
1.175146108E1,-1.020804643E0,5.644995546E-1,2.877671369E-1,1.201462355E0
1.176141108E1,-3.862056702E-1,4.376845568E-1,9.858412899E-2,5.919809300E-1
1.177136108E1,1.890448675E-1,3.010573465E-1,8.980628885E-2,3.666587750E-1
1.178131108E1,5.294794106E-1,3.670443445E-1,9.076866746E-2,6.506219702E-1
1.179126108E1,5.200122569E-1,5.881608975E-1,7.643363357E-2,7.887890016E-1
1.180121108E1,2.062250103E-1,7.311989951E-1,-1.360186614E-2,7.598458634E-1
1.181116108E1,-1.850067803E-1,6.161117578E-1,-1.144347612E-1,6.533884919E-1
1.182111108E1,-4.199664702E-1,4.682678336E-1,-2.678574407E-1,6.836623498E-1
1.183106108E1,-4.586541340E-1,3.868067640E-1,-4.532912870E-1,7.519681364E-1
1.184101108E1,-1.999506555E-1,1.374838275E-1,-4.997053885E-1,5.555065641E-1
1.185096108E1,1.415518816E-1,1.222594321E-2,-5.419525449E-1,5.602668737E-1
1.186091108E1,4.092907700E-1,1.887656629E-2,-6.413938757E-1,7.610922171E-1
1.187086108E1,6.204767042E-1,-6.259210467E-2,-7.079772898E-1,9.434728162E-1
1.188081108E1,6.452516493E-1,-1.276447177E-1,-8.396403603E-1,1.066601519E0
1.189076108E1,2.648103105E-1,-9.604402542E-2,-9.336880001E-1,9.752549599E-1
1.190071108E1,-2.121225120E-1,-9.441616058E-2,-9.490358448E-1,9.770257961E-1
1.191066108E1,-3.122910172E-1,-2.130479801E-1,-8.250212248E-1,9.075104091E-1
1.192061108E1,7.111515239E-2,-3.529940701E-1,-6.415903421E-1,7.357311639E-1
1.193056108E1,5.923257230E-1,-3.897362190E-1,-4.107036766E-1,8.194031929E-1
1.194051108E1,8.697150023E-1,-3.577133578E-1,-2.322934326E-1,9.686708783E-1
1.195046108E1,7.722081497E-1,-1.865296876E-1,-1.369768739E-1,8.061398234E-1
1.196041108E1,5.736922547E-1,-7.430641651E-2,-5.890368104E-2,5.814756145E-1
1.197036108E1,2.942362770E-1,-1.479439116E-1,5.430776954E-2,3.337839444E-1
1.198031108E1,7.535321429E-2,-2.323315126E-1,1.256133950E-1,2.746538979E-1
1.199026108E1,7.786357015E-2,-3.081009024E-1,1.444496155E-1,3.490767724E-1
1.200021108E1,8.298646197E-2,-4.399503529E-1,2.285909756E-1,5.026896657E-1
1.201016108E1,4.955515265E-3,-4.505443382E-1,2.155213523E-1,4.994639238E-1
1.202011108E1,-5.226387531E-3,-3.734745276E-1,2.364941454E-1,4.420859856E-1
1.203006108E1,2.200396420E-1,-3.123342866E-1,3.065345065E-1,4.898301280E-1
1.204001108E1,4.690670018E-1,-1.668000126E-1,2.216563240E-1,5.449565325E-1
1.204996108E1,4.334732459E-1,-5.023869216E-2,9.575992383E-2,4.467582614E-1
1.205991108E1,4.490049125E-1,1.884148300E-2,6.172905564E-2,4.536197629E-1
1.206986108E1,4.947824715E-1,7.249377966E-2,8.866725124E-2,5.078650644E-1
1.207981108E1,5.000576833E-1,1.498091733E-1,6.137581073E-2,5.256115155E-1
1.208976108E1,4.814337167E-1,1.842241305E-1,2.710067511E-2,5.161893068E-1
1.209971108E1,6.287044676E-1,3.707427084E-2,-1.639793158E-2,6.300100803E-1
1.210966108E1,8.384227507E-1,-7.190671921E-2,-1.317132103E-1,8.517462386E-1
1.211961108E1,9.568695058E-1,-1.067023301E-1,-2.295172477E-1,9.897791700E-1
1.212956108E1,1.017640203E0,-1.488782966E-1,-2.560834873E-1,1.059875031E0
1.213951108E1,1.098974680E0,-5.868557990E-2,-3.020355856E-1,1.141233911E0
1.214946108E1,1.238364115E0,-1.201135039E-2,-2.942107686E-1,1.272890384E0
1.215941108E1,1.439328093E0,-5.690744162E-2,-2.577335715E-1,1.463328538E0
1.216936108E1,1.550168352E0,4.721626639E-3,-2.872058773E-1,1.576556827E0
1.217931108E1,1.492179029E0,1.314413148E-1,-1.774022571E-1,1.508425217E0
1.218926108E1,1.427001870E0,3.388549179E-1,1.215623709E-1,1.471711386E0
1.219921108E1,1.511671307E0,4.984494066E-1,2.981694067E-1,1.619415619E0
1.220916108E1,1.586938713E0,4.323390323E-1,4.136133242E-1,1.695985702E0
1.221911108E1,1.621213484E0,4.235933518E-1,2.908370713E-1,1.700691239E0
1.222906108E1,1.672326188E0,3.062420726E-1,5.314885139E-2,1.700965575E0
1.223901108E1,1.694628200E0,6.863461733E-2,-8.105403028E-2,1.697953239E0
1.224896108E1,1.760080762E0,-1.046739310E-1,-2.070263712E-1,1.775303028E0
1.225891108E1,1.771356094E0,-2.730380738E-1,-2.192471981E-1,1.805636048E0
1.226886108E1,1.738365811E0,-3.389858955E-1,-2.157049549E-1,1.784196110E0
1.227881108E1,1.538578732E0,-3.025431240E-1,-1.447419032E-1,1.574708568E0
1.228876108E1,1.397277403E0,-2.447241014E-1,6.080051780E-2,1.419848841E0
1.229871108E1,1.442341748E0,-1.968529469E-1,2.364660788E-1,1.474793886E0
1.230866108E1,1.521197298E0,-3.528566605E-1,3.717987887E-1,1.605236239E0
1.231861108E1,1.352752172E0,-4.697249597E-1,4.331536225E-1,1.496062177E0
1.232856108E1,9.985237545E-1,-4.029696375E-1,3.654031773E-1,1.137081219E0
1.233851108E1,7.903041127E-1,-3.617929602E-1,3.603323257E-1,9.409113250E-1
1.234846108E1,8.223038044E-1,-5.740609217E-1,4.656838759E-1,1.105708352E0
1.235841108E1,8.112010382E-1,-7.760038698E-1,5.411269911E-1,1.246213285E0
1.236836108E1,1.027480043E0,-1.047380750E0,6.188037428E-1,1.592369224E0
1.237831108E1,1.258295081E0,-1.325440412E0,7.588889965E-1,1.978891433E0
1.238826108E1,1.014112212E0,-1.411946459E0,7.994265731E-1,1.913399913E0
1.239821108E1,5.530757763E-1,-1.461427352E0,7.071154833E-1,1.715131198E0
1.240816108E1,1.229977161E-1,-1.418113518E0,5.081382430E-1,1.511416177E0
1.241811108E1,-7.552950785E-2,-1.502911593E0,3.759946775E-1,1.551070586E0
1.242806108E1,-2.566394113E-2,-1.630666239E0,3.197631741E-1,1.661920427E0
1.243801108E1,2.768123053E-1,-1.680376927E0,2.826567435E-1,1.726321669E0
1.244796108E1,4.184731644E-1,-1.801140642E0,3.625320482E-1,1.884318680E0
1.245791108E1,4.161673149E-1,-1.782654085E0,3.745083153E-1,1.868504027E0
1.246786108E1,4.844782157E-1,-1.706515735E0,3.372392591E-1,1.805725731E0
1.247781108E1,4.272681807E-1,-1.609964172E0,2.129017266E-1,1.679246818E0
1.248776108E1,1.941662244E-1,-1.503217987E0,8.614468932E-2,1.518152083E0
1.249771108E1,1.423452757E-1,-1.396822636E0,-7.855259143E-2,1.406252525E0
1.250766108E1,3.734259226E-1,-1.421526538E0,-1.016457311E-1,1.473267278E0
1.251761108E1,7.494339757E-1,-1.566492462E0,-1.192239963E-2,1.736574807E0
1.252756108E1,1.013495916E0,-1.605420885E0,2.044257490E-1,1.909539231E0
1.253751108E1,1.067850901E0,-1.431956216E0,3.898256814E-1,1.828323881E0
1.254746108E1,7.844709304E-1,-1.300937070E0,4.391585668E-1,1.581357691E0
1.255741108E1,2.686131202E-1,-1.306945669E0,3.218436134E-1,1.372531712E0
1.256736108E1,-2.680989307E-1,-1.189322494E0,7.205874681E-2,1.221293370E0
1.257731108E1,-5.109083614E-1,-9.385009164E-1,-5.643966436E-2,1.070045214E0
1.258726108E1,-9.070730824E-2,-8.710146922E-1,-1.394568242E-2,8.758361101E-1
1.259721108E1,4.843544009E-1,-8.140797687E-1,1.157725310E-1,9.543208760E-1
1.260716108E1,7.758066724E-1,-6.287680560E-1,2.988231254E-1,1.042362951E0
1.261711108E1,7.285348575E-1,-6.131214917E-1,6.303250965E-1,1.141924135E0
1.262706208E1,2.921540835E-1,-5.389115542E-1,8.278113699E-1,1.030073461E0
1.263701208E1,-4.320449173E-1,-4.888266438E-1,9.135923624E-1,1.122615385E0
1.264696208E1,-9.284574464E-1,-6.400268698E-1,8.489454731E-1,1.411515512E0
1.265691208E1,-1.156059292E0,-9.720370370E-1,6.960010958E-1,1.663053401E0
1.266686208E1,-1.053099911E0,-1.400563100E0,5.773728212E-1,1.844981245E0
1.267681208E1,-7.209782083E-1,-1.579966201E0,2.981179877E-1,1.762094523E0
1.268676208E1,-3.333014517E-1,-1.514993695E0,4.636377890E-2,1.551916671E0
1.269671208E1,-2.347167746E-1,-1.408573201E0,-1.780114639E-1,1.439047778E0
1.270666208E1,-3.673734697E-1,-1.249017888E0,-2.532815015E-1,1.326333469E0
1.271661208E1,-6.295328718E-1,-1.259099658E0,-1.011053753E-1,1.411334787E0
1.272656208E1,-1.000217474E0,-1.355400960E0,-6.382352829E-2,1.685710592E0
1.273651208E1,-1.645387335E0,-1.330881246E0,-2.711376921E-1,2.133555723E0
1.274646208E1,-2.053481618E0,-1.188620244E0,-4.950814104E-1,2.423780197E0
1.275641208E1,-1.669505784E0,-1.352811229E0,-6.817385674E-1,2.254354732E0
1.276636208E1,-1.208891225E0,-1.260244542E0,-8.169975293E-1,1.927983211E0
1.277631208E1,-7.371003706E-1,-1.037697760E0,-9.265100312E-1,1.574342541E0
1.278626208E1,-2.302817711E-1,-1.037521759E0,-7.656695008E-1,1.309859107E0
1.279621208E1,2.204583026E-4,-1.021201011E0,-6.126695019E-1,1.190888522E0
1.280616208E1,-3.914237255E-1,-9.289500743E-1,-5.760045362E-1,1.161009044E0
1.281611208E1,-1.060771751E0,-1.207713157E0,-4.565576148E-1,1.671003480E0
1.282606208E1,-1.663077063E0,-1.317687004E0,-7.832538325E-1,2.261771634E0
1.283601208E1,-1.980642853E0,-1.226339462E0,-1.054065871E0,2.556933603E0
1.284596208E1,-1.525434483E0,-1.370256397E0,-9.166294062E-1,2.246054858E0
1.285591208E1,-1.047433448E0,-1.076957721E0,-6.591057497E-1,1.640541114E0
1.286586208E1,-5.951554830E-1,-6.828682494E-1,-1.621777155E-1,9.202286164E-1
1.287581208E1,2.404800827E-2,-6.094599652E-1,2.543486915E-1,6.608426536E-1
1.288576208E1,4.723859545E-2,-3.681927377E-1,2.047998977E-1,4.239579874E-1
1.289571208E1,-6.722089946E-1,5.601164818E-2,-1.945796225E-1,7.020423538E-1
1.290566208E1,-1.533443122E0,-1.179547119E-1,-3.856969625E-1,1.585598710E0
1.291561208E1,-2.213771049E0,-5.223352826E-1,-4.185408459E-1,2.312745737E0
1.292556208E1,-2.506579143E0,-8.376586658E-1,-4.345377316E-1,2.678326732E0
1.293551208E1,-2.416353098E0,-1.090396961E0,-2.833999246E-1,2.666091398E0
1.294546208E1,-2.120021032E0,-1.089281897E0,-6.236055493E-2,2.384305573E0
1.295541208E1,-1.668800902E0,-7.931104839E-1,3.900458291E-2,1.848091461E0
1.296536208E1,-1.281310599E0,-5.993150461E-1,1.958739768E-1,1.428041312E0
1.297531208E1,-1.243546649E0,-1.256812227E-1,4.026275754E-2,1.250529938E0
1.298526208E1,-1.651653065E0,4.447000462E-1,-2.087923765E-2,1.710599872E0
1.299521208E1,-2.139924808E0,4.936207759E-1,2.446703070E-1,2.209706590E0
1.300516208E1,-2.317124532E0,3.569695920E-1,4.398955353E-1,2.385372396E0
1.301511208E1,-1.965003452E0,-6.580748856E-2,6.784863460E-1,2.079882908E0
1.302506208E1,-1.580298031E0,-5.272767645E-1,9.417180544E-1,1.913686376E0
1.303501208E1,-1.436426705E0,-4.843085003E-1,9.941050136E-1,1.812766168E0
1.304496208E1,-1.257374875E0,1.286153555E-2,8.188756549E-1,1.500571336E0
1.305491208E1,-1.184797407E0,3.861746800E-1,6.409264639E-1,1.401307429E0
1.306486208E1,-1.583462398E0,7.873562390E-1,5.170616788E-1,1.842453742E0
1.307481208E1,-2.079392239E0,9.972543240E-1,4.089267808E-1,2.342137780E0
1.308476208E1,-2.155135901E0,8.701703542E-1,4.316701108E-1,2.363926031E0
1.309471208E1,-1.548815598E0,5.683318198E-1,5.632201838E-1,1.743286491E0
1.310466208E1,-9.760223530E-1,1.393625379E-1,9.809508249E-1,1.390793324E0
1.311461208E1,-5.690678380E-1,1.349391192E-1,1.235063508E0,1.366538927E0
1.312456208E1,-5.699318007E-1,5.843420810E-1,1.062433237E0,1.339791890E0
1.313451208E1,-1.161992462E0,1.142655866E0,8.431904241E-1,1.834900270E0
1.314446208E1,-1.896000460E0,9.899529058E-1,1.254990819E0,2.479884363E0
1.315441208E1,-1.927386851E0,1.359043191E0,1.055131526E0,2.583625555E0
1.316436208E1,-1.887178473E0,1.588607801E0,8.381021771E-1,2.605289349E0
1.317431208E1,-1.345795593E0,1.239583991E0,1.086685733E0,2.128055481E0
1.318426208E1,-9.030094868E-1,1.037006035E0,1.220816767E0,1.838804293E0
1.319421208E1,-7.080929916E-1,8.069771558E-1,1.277458745E0,1.668684710E0
1.320416208E1,-6.649804473E-1,5.894046003E-1,1.393046212E0,1.652323977E0
1.321411308E1,-1.202492251E0,1.037637534E0,6.364290780E-1,1.711058514E0
1.322406208E1,-2.177454577E0,1.366435241E0,2.458900362E-2,2.570808885E0
1.323401308E1,-2.714354689E0,1.472836440E0,-7.678063658E-1,3.182215450E0
1.324396308E1,-2.761262515E0,4.967589766E-1,-3.144998029E-1,2.823163170E0
1.325390946E1,-1.967207267E0,-1.680413765E-1,1.713824755E-1,1.981795723E0
1.326385946E1,-1.178406547E0,3.294906020E-2,4.638277504E-1,1.266832196E0
1.327380946E1,-3.992414528E-1,1.527187479E-1,1.097001976E0,1.177340260E0
1.328375946E1,2.692672227E-1,2.129795676E-1,1.549421808E0,1.587001284E0
1.329370946E1,3.809830834E-1,2.034421742E-1,1.441756150E0,1.505057349E0
1.330365946E1,-1.484325195E-1,-1.064719498E-2,8.062754899E-1,8.198937378E-1
1.331360946E1,-1.076485704E0,-2.515916562E-1,-6.809608877E-2,1.107590588E0
1.332355946E1,-1.936736988E0,-6.106937277E-1,-9.687877393E-1,2.249988149E0
1.333350946E1,-2.253509165E0,-8.928651524E-1,-1.436187846E0,2.817471786E0
1.334345946E1,-1.634170183E0,-5.532231992E-1,-1.788529952E0,2.485036716E0
1.335340946E1,-3.991356548E-1,-3.610187888E-2,-1.649770846E0,1.697750412E0
1.336335946E1,6.753730691E-1,2.945300996E-1,-7.240753323E-1,1.033035260E0
1.337330946E1,1.511535359E0,8.567106485E-1,2.347993299E-1,1.753232159E0
1.338325946E1,1.756767291E0,1.663860882E0,6.704306370E-1,2.510804968E0
1.339320946E1,1.120069753E0,2.011465573E0,8.335626912E-1,2.448545847E0
1.340315946E1,1.231916062E-1,1.575871396E0,5.085653821E-1,1.660477515E0
1.341310946E1,-8.957890525E-1,7.485038298E-1,-3.111262518E-1,1.208095838E0
1.342305946E1,-1.899436576E0,-1.584262151E-1,-1.142482789E0,2.222211757E0
1.343300946E1,-2.197969533E0,-5.351629043E-1,-1.707720262E0,2.834391980E0
1.344295946E1,-1.136410382E0,-3.236913335E-1,-1.859665423E0,2.203306634E0
1.345290946E1,3.041433242E-1,9.172761083E-2,-1.252028620E0,1.291701506E0
1.346285946E1,1.343497199E0,1.282121900E0,-5.581190729E-1,1.939153988E0
1.347280946E1,1.779175137E0,2.298015978E0,2.536896372E-1,2.917310411E0
1.348275946E1,1.547305993E0,2.933241699E0,8.485385799E-1,3.423168185E0
1.349270946E1,9.483426574E-1,2.991965286E0,1.050475681E0,3.309789906E0
1.350265946E1,2.235382869E-1,2.476627951E0,8.522609174E-1,2.628688655E0
1.351260946E1,-6.641005875E-1,1.698451256E0,4.020346677E-1,1.867457665E0
1.352255946E1,-1.499396393E0,1.289628555E0,9.382325292E-2,1.979932867E0
1.353250946E1,-1.074777879E0,1.272629530E0,-9.105576575E-2,1.668239959E0
1.354245946E1,1.118801127E-1,1.273397269E0,4.488381207E-2,1.279090427E0
1.355240946E1,8.246556276E-1,1.672411265E0,5.153256404E-1,1.934574077E0
1.356235946E1,1.030889482E0,2.400455103E0,9.349469787E-1,2.774715062E0
1.357230946E1,9.196119978E-1,2.841757332E0,1.380839857E0,3.290591082E0
1.358225946E1,7.289725216E-1,2.889626732E0,1.776346693E0,3.469402134E0
1.359220946E1,4.033592813E-1,2.674538074E0,1.895448629E0,3.302813668E0
1.360215946E1,-1.802174356E-1,2.114716292E0,1.778415438E0,2.768982627E0
1.361210946E1,-5.827629673E-1,1.826759632E0,1.408497187E0,2.379186364E0
1.362206046E1,-3.732979782E-1,1.632234462E0,1.128837141E0,2.019359802E0
1.363200946E1,2.103085595E-1,1.451274832E0,1.053420339E0,1.805580997E0
1.364196046E1,7.260294718E-1,1.826799393E0,9.939752054E-1,2.202794027E0
1.365191046E1,1.042554896E0,2.247006038E0,1.152858088E0,2.732222285E0
1.366186046E1,1.205897085E0,2.483623559E0,1.358239784E0,3.076912263E0
1.367181046E1,1.164604560E0,2.479677274E0,1.543937997E0,3.144653828E0
1.368176046E1,8.063754042E-1,2.332392343E0,1.576566045E0,2.928456220E0
1.369171046E1,4.215183943E-1,1.967586898E0,1.431738700E0,2.469605568E0
1.370166046E1,3.420068595E-1,1.668265005E0,1.270446764E0,2.124643923E0
1.371161046E1,3.844866619E-1,1.427427548E0,1.156761104E0,1.877092339E0
1.372156046E1,5.035213546E-1,1.281341881E0,1.234957089E0,1.849456618E0
1.373151046E1,8.230459622E-1,1.480699190E0,1.226068152E0,2.091200101E0
1.374146046E1,8.496841957E-1,1.865990941E0,1.162627616E0,2.357029571E0
1.375141046E1,7.133086348E-1,2.145189641E0,1.248549234E0,2.582541964E0
1.376136046E1,7.361179653E-1,2.104231650E0,1.567230673E0,2.725045408E0
1.377131046E1,8.451890755E-1,1.994489352E0,1.772214758E0,2.798763566E0
1.378126046E1,8.089948837E-1,1.772084658E0,1.944344508E0,2.752313994E0
1.379121046E1,7.981555346E-1,1.227229409E0,1.896475400E0,2.395780295E0
1.380116046E1,7.374349775E-1,6.375587600E-1,1.459423512E0,1.755052280E0
1.381111046E1,7.831250475E-1,9.526921088E-1,5.792286909E-1,1.362502466E0
1.382106046E1,1.157871783E0,1.261074262E0,1.407989064E-1,1.717789188E0
1.383101046E1,1.756140031E0,-4.712616080E-1,8.025285941E-1,1.987502819E0
1.384096046E1,2.122399241E0,2.260685599E-1,8.086272401E-1,2.282446833E0
1.385091046E1,2.376299086E0,1.200723980E0,1.041358702E0,2.858839514E0
1.386086046E1,2.915037855E0,1.382244943E0,1.465354342E0,3.543347305E0
1.387081046E1,3.340222526E0,1.216803823E0,1.806689942E0,3.987709444E0
1.388076046E1,3.158937791E0,1.118228538E0,2.194323794E0,4.005543652E0
1.389071046E1,2.698356122E0,1.150016341E0,2.266311497E0,3.706727823E0
1.390066046E1,2.357783585E0,1.041356948E0,1.926437410E0,3.217876446E0
1.391061046E1,2.564897518E0,3.616707534E-1,1.510296334E0,2.998416254E0
1.392056146E1,2.953254964E0,-3.369691908E-1,9.335091484E-1,3.115558128E0
1.393051146E1,3.146533508E0,-7.303014475E-1,2.770030707E-1,3.242027764E0
1.394046146E1,3.032895210E0,-9.072604126E-1,-4.516243190E-2,3.166009232E0
1.395041146E1,2.585210161E0,-7.820767879E-1,8.078454673E-2,2.702125426E0
1.396036146E1,1.887359883E0,-5.399541128E-1,3.250794625E-1,1.989812662E0
1.397031146E1,1.475414185E0,-5.509819615E-1,4.592180979E-1,1.640521076E0
1.398026146E1,1.421515574E0,-6.628514761E-1,5.834936500E-1,1.673482431E0
1.399021146E1,1.456376966E0,-6.733138990E-1,8.822049473E-1,1.831030050E0
1.400016146E1,1.691192230E0,-5.330409497E-1,1.269505216E0,2.180804280E0
1.401011146E1,1.916593038E0,-3.327252817E-1,1.679850970E0,2.570201211E0
1.402006146E1,1.998857953E0,-2.417373437E-1,2.061849861E0,2.881856157E0
1.403001146E1,1.956153252E0,-1.441052145E-1,2.398041957E0,3.098048916E0
1.403996146E1,1.537875458E0,3.761806190E-2,2.627712694E0,3.044889168E0
1.404991146E1,1.173141933E0,-5.356049538E-3,2.588930159E0,2.842331798E0
1.405986146E1,8.187685047E-1,-1.690973836E-1,2.397651802E0,2.539234127E0
1.406981146E1,4.430020148E-1,-1.444057614E-1,2.125875557E0,2.176338828E0
1.407976146E1,6.789380434E-1,-4.641192341E-1,1.992846138E0,2.155875521E0
1.408971146E1,1.278537703E0,-1.003822501E0,2.001994107E0,2.578817302E0
1.409966146E1,1.775413770E0,-1.412887861E0,1.787311246E0,2.888395342E0
1.410961146E1,1.644481017E0,-1.699204962E0,1.439320199E0,2.768259011E0
1.411956146E1,1.307212594E0,-1.820718874E0,1.283640422E0,2.582935291E0
1.412951146E1,9.479617113E-1,-1.440070397E0,1.213190390E0,2.108142566E0
1.413946146E1,7.109388314E-1,-9.407883471E-1,1.284518820E0,1.743704486E0
1.414941146E1,8.265733682E-1,-6.864870912E-1,1.540578772E0,1.878262764E0
1.415936146E1,1.140614311E0,-4.807452071E-1,1.731239517E0,2.128216912E0
1.416931146E1,1.472087704E0,-6.060118622E-1,1.863458512E0,2.450871316E0
1.417926146E1,1.837385046E0,-1.141674703E0,1.862794853E0,2.854717079E0
1.418921146E1,1.955602152E0,-1.671406129E0,1.500093820E0,2.977962339E0
1.419916246E1,1.695448272E0,-1.992424700E0,8.477345878E-1,2.750082719E0
1.420911246E1,1.160808547E0,-2.141912277E0,2.508660350E-1,2.449121976E0
1.421906246E1,5.561737043E-1,-2.061170415E0,-3.335485697E-2,2.135149928E0
1.422901246E1,3.818619199E-1,-2.026008768E0,-1.649300730E-1,2.068267870E0
1.423896246E1,5.793805723E-1,-2.155026412E0,5.755996804E-3,2.231558607E0
1.424891221E1,8.973384185E-1,-2.366243629E0,2.012763655E-1,2.538668415E0
1.425886221E1,9.532613352E-1,-2.535221145E0,3.128272069E-1,2.726520546E0
1.426881221E1,6.966559839E-1,-2.672630712E0,4.398451030E-1,2.796738851E0
1.427876221E1,7.027674937E-1,-3.045807617E0,6.026280785E-1,3.183392340E0
1.428871221E1,7.058456142E-1,-3.190996320E0,4.940956064E-1,3.305269432E0
1.429866221E1,1.035854718E-1,-2.980176129E0,2.279700744E-1,2.990677192E0
1.430861221E1,-7.435911454E-1,-3.083269558E0,-3.056456566E-2,3.171815435E0
1.431856221E1,-1.172616707E0,-3.250586464E0,-2.155213157E-1,3.462339056E0
1.432851221E1,-9.898521875E-1,-3.254092455E0,-4.775666606E-1,3.434675381E0
1.433846221E1,-2.906209436E-1,-3.454260188E0,-5.579378823E-1,3.511077991E0
1.434841221E1,3.690527169E-1,-3.738458843E0,-5.036838341E-1,3.790246935E0
1.435836221E1,2.661719808E-1,-3.923619697E0,-5.988227105E-1,3.977967784E0
1.436831221E1,-3.788086501E-1,-3.861428711E0,-8.497852063E-1,3.971934363E0
1.437826221E1,-9.327500336E-1,-3.584146144E0,-1.342837633E0,3.939459241E0
1.438821221E1,-1.314935012E0,-3.348303378E0,-1.498148890E0,3.896747323E0
1.439816221E1,-1.421562790E0,-2.924834572E0,-1.073135980E0,3.424488118E0
1.440811221E1,-1.050711031E0,-2.227960487E0,-7.162792397E-1,2.565318217E0
1.441806221E1,-7.552183338E-1,-1.789674252E0,-2.384190853E-1,1.957072385E0
1.442801221E1,-6.047452091E-1,-1.501953235E0,1.277628314E-1,1.624162439E0
1.443796221E1,-9.209037209E-1,-1.143382675E0,2.734333821E-1,1.493369820E0
1.444791221E1,-1.367073611E0,-9.015248787E-1,9.248307109E-2,1.640180015E0
1.445786221E1,-1.634577295E0,-9.966222399E-1,-1.540717570E-1,1.920634512E0
1.446781321E1,-1.637284264E0,-1.027722995E0,-3.237077423E-1,1.960025769E0
1.447776321E1,-1.149246994E0,-1.144904121E0,-3.481853564E-1,1.659158564E0
1.448771321E1,-5.422533841E-1,-1.112455582E0,-3.974738395E-1,1.299839070E0
1.449766321E1,-3.422834328E-1,-7.808944809E-1,-4.941435170E-1,9.854602753E-1
1.450761321E1,-4.710082774E-1,-4.230448830E-1,-4.487761402E-1,7.760256403E-1
1.451756321E1,-7.905304000E-1,-1.061977154E-1,-2.642088147E-1,8.402514896E-1
1.452751321E1,-1.090344336E0,6.481463134E-2,6.257653646E-3,1.092286989E0
1.453746321E1,-1.196736618E0,1.474404663E-1,1.258121638E-1,1.212330781E0
1.454741321E1,-1.318544645E0,3.220394951E-1,2.337354290E-1,1.377280533E0
1.455736321E1,-1.494410034E0,4.409777087E-1,3.365248024E-1,1.594042544E0
1.456731321E1,-1.583804606E0,4.421331185E-1,4.855562961E-1,1.714550565E0
1.457726321E1,-1.601490387E0,4.967589766E-1,5.446412408E-1,1.763001708E0
1.458721321E1,-1.704286192E0,5.268896788E-1,5.527782261E-1,1.867556673E0
1.459716321E1,-1.879786569E0,4.517903799E-1,4.954334128E-1,1.995787153E0
1.460711321E1,-1.697788620E0,1.365114355E-1,4.673889971E-1,1.766231594E0
1.461706321E1,-1.332335741E0,7.396727800E-3,3.282053840E-1,1.372185123E0
1.462701321E1,-1.258610976E0,2.060617268E-1,1.283148269E-1,1.281806429E0
1.463696321E1,-1.201831443E0,3.135060686E-1,5.267873526E-2,1.243165283E0
1.464691321E1,-1.047756141E0,2.172959822E-1,9.905066371E-2,1.074626218E0
1.465686321E1,-1.058007187E0,1.929031527E-1,4.732738176E-2,1.076489998E0
1.466681321E1,-1.251552364E0,2.629732615E-1,4.117375374E-2,1.279544268E0
1.467676321E1,-1.254872267E0,3.269037938E-1,7.221196214E-2,1.298762897E0
1.468671321E1,-1.017480720E0,3.004100597E-1,1.661614966E-1,1.073835584E0
1.469666321E1,-5.951177685E-1,3.056088191E-1,3.242000413E-1,7.434161523E-1
1.470661321E1,-1.676045895E-1,4.143500733E-1,4.291563928E-1,6.196390007E-1
1.471656321E1,2.639769360E-2,5.000562215E-1,4.824362218E-1,6.953400398E-1
1.472651421E1,-1.820976444E-1,5.733984321E-1,4.423453724E-1,7.467360595E-1
1.473646421E1,-5.081322496E-1,5.254536027E-1,3.716981435E-1,8.200362074E-1
1.474641421E1,-6.507663046E-1,2.313111734E-1,2.334945238E-1,7.290550972E-1
1.475636421E1,-6.031019953E-1,-1.418370795E-1,-2.614055316E-2,6.201073313E-1
1.476631421E1,-5.549276626E-1,-1.801813656E-1,-3.689791882E-1,6.903301214E-1
1.477626421E1,-3.772480282E-1,-1.021637213E-1,-4.736817706E-1,6.141074177E-1
1.478621421E1,-3.150889099E-2,-9.503596544E-2,-4.273507726E-1,4.389229178E-1
1.479616421E1,1.305138002E-1,9.361392260E-4,-3.666812325E-1,3.892169763E-1
1.480611421E1,1.681960353E-1,1.085874724E-1,-1.260531056E-1,2.365809183E-1
1.481606421E1,1.638134010E-1,2.328425592E-1,5.726763010E-2,2.903964001E-1
1.482601421E1,-9.935735017E-3,3.011386228E-1,5.097719550E-2,3.055844620E-1
1.483596421E1,-1.507454588E-1,1.688681728E-1,-4.411140402E-2,2.306219180E-1
1.484591421E1,-1.670312700E-1,4.547087252E-2,-2.379875243E-1,2.942874566E-1
1.485586421E1,-1.504608455E-1,-3.770401597E-2,-4.308497465E-1,4.579209134E-1
1.486581421E1,-3.098878115E-3,-1.224512208E-1,-4.824572718E-1,4.977639236E-1
1.487576421E1,2.588712935E-1,-2.104237497E-1,-4.353883553E-1,5.485029817E-1
1.488571421E1,4.102380189E-1,-2.232116103E-1,-3.627004480E-1,5.913292401E-1
1.489566421E1,5.491953447E-1,-2.018271732E-1,-3.299466848E-1,6.717250549E-1
1.490561421E1,6.133748223E-1,-2.483645779E-1,-2.917585194E-1,7.232127417E-1
1.491556421E1,4.984071605E-1,-2.992599124E-1,-2.810990453E-1,6.457421049E-1
1.492551421E1,3.616245604E-1,-2.059038520E-1,-2.784198511E-1,5.006858620E-1
1.493546421E1,4.956610157E-1,-2.211826265E-1,-2.885448897E-1,6.147029771E-1
1.494541421E1,6.532732983E-1,-2.296365309E-1,-2.749770105E-1,7.450579138E-1
1.495536421E1,7.000662263E-1,-7.281420708E-2,-2.668026030E-1,7.527139290E-1
1.496531521E1,7.468207088E-1,6.066486239E-3,-2.313135123E-1,7.818464775E-1
1.497526521E1,8.176788761E-1,2.928753376E-2,-1.740903211E-1,8.365189441E-1
1.498521521E1,8.257762465E-1,2.896125913E-2,-1.173547876E-1,8.345761259E-1
1.499516521E1,8.000369494E-1,-4.571704030E-2,-3.894362569E-2,8.022878374E-1
1.500511521E1,7.911418726E-1,-7.001046717E-2,1.004212511E-1,8.005569035E-1
1.501506521E1,7.958329475E-1,-1.727267504E-3,1.651019812E-1,8.127802458E-1
1.502501521E1,7.215836875E-1,7.055308878E-2,1.290913188E-1,7.364274065E-1
1.503496521E1,6.292979600E-1,4.169357121E-2,8.964834094E-2,6.370173477E-1
1.504491521E1,5.787388404E-1,3.575396955E-2,8.165519714E-2,5.855634576E-1
1.505486521E1,6.328786486E-1,6.017661989E-2,9.626738906E-2,6.429805749E-1
1.506481521E1,7.637231089E-1,-1.033852047E-1,1.808625662E-1,7.916266516E-1
1.507476521E1,8.307205059E-1,-2.141571969E-1,1.591951239E-1,8.725267625E-1
1.508471521E1,7.938973729E-1,-2.199313223E-1,6.697752098E-2,8.265160698E-1
1.509466521E1,7.410721649E-1,-2.370999169E-1,1.218442798E-2,7.781727215E-1
1.510461521E1,6.854018480E-1,-1.403548104E-1,-4.621989171E-2,7.011500869E-1
1.511456521E1,7.067769295E-1,-9.637322366E-2,-5.605257869E-2,7.155161199E-1
1.512451521E1,8.258681940E-1,-1.728431100E-1,7.203535795E-2,8.468306249E-1
1.513446521E1,1.238211357E0,-3.506154227E-1,3.166875386E-1,1.325288473E0
1.514441521E1,1.564188074E0,-4.070223427E-1,5.034429288E-1,1.692869251E0
1.515436521E1,1.397567279E0,-3.545769113E-1,6.120327401E-1,1.566366228E0
1.516431521E1,1.049310769E0,-3.921669066E-1,5.547265184E-1,1.250027793E0
1.517426521E1,7.009547107E-1,-4.950469118E-1,4.203633499E-1,9.555701425E-1
1.518421521E1,5.664801528E-1,-5.748836249E-1,2.696689081E-1,8.509478631E-1
1.519416521E1,7.019490297E-1,-7.045579112E-1,2.107067549E-1,1.016627575E0
1.520411521E1,8.297517684E-1,-7.935192043E-1,2.528523159E-1,1.175625373E0
1.521406621E1,9.277147038E-1,-8.986234903E-1,2.770632970E-1,1.320962838E0
1.522401621E1,1.063638640E0,-9.497860426E-1,2.770890248E-1,1.452652406E0
1.523396621E1,1.116808980E0,-1.031153557E0,3.187106752E-1,1.553098983E0
1.524391621E1,1.002415223E0,-1.044499242E0,3.815588880E-1,1.497131300E0
1.525386663E1,9.070034274E-1,-9.751407391E-1,4.148108339E-1,1.394855801E0
1.526381662E1,8.659005712E-1,-9.218486309E-1,4.474523306E-1,1.341567101E0
1.527376663E1,9.531455603E-1,-8.860309267E-1,5.934760531E-1,1.430297552E0
1.528371663E1,1.174021720E0,-9.839232570E-1,7.394692969E-1,1.700954677E0
1.529366663E1,1.325873837E0,-1.221202683E0,8.634828937E-1,1.998719624E0
1.530361662E1,1.403934312E0,-1.476714898E0,8.168361461E-1,2.195208357E0
1.531356663E1,1.394888085E0,-1.658689604E0,6.627269304E-1,2.266312193E0
1.532351663E1,1.282187242E0,-1.727742882E0,4.761563122E-1,2.203593526E0
1.533346663E1,1.109279374E0,-1.688005790E0,3.327147567E-1,2.047086560E0
1.534341662E1,1.069198392E0,-1.585706413E0,2.497053262E-1,1.928730873E0
1.535336663E1,1.076095841E0,-1.512002259E0,3.815705824E-1,1.894658070E0
1.536331663E1,1.199749322E0,-1.562344447E0,5.767073715E-1,2.052537454E0
1.537326663E1,1.298636483E0,-1.794432131E0,7.987624025E-1,2.354668716E0
1.538321662E1,1.258907284E0,-2.054640244E0,8.276371229E-1,2.547818143E0
1.539316662E1,1.001639078E0,-2.174087750E0,6.460307908E-1,2.479373746E0
1.540311663E1,7.294049232E-1,-1.997861441E0,3.096428132E-1,2.149269772E0
1.541306663E1,3.430546805E-1,-1.688862991E0,7.943326433E-2,1.725182414E0
1.542301662E1,-1.392043707E-1,-1.403598974E0,2.440862616E-2,1.410696182E0
1.543296662E1,-5.124715414E-1,-1.201187664E0,-5.135844310E-2,1.306949339E0
1.544291663E1,-7.258914775E-1,-1.160052502E0,-1.165244738E-1,1.373396592E0
1.545286762E1,-6.913288781E-1,-1.318296869E0,-3.468684356E-2,1.488974623E0
1.546281762E1,-5.036938474E-1,-1.555401464E0,-2.818241000E-2,1.635168326E0
1.547276763E1,-2.947851479E-1,-1.931179209E0,-3.362382432E-2,1.953837758E0
1.548271763E1,-2.440431932E-1,-2.102074027E0,-1.195030546E-1,2.119564407E0
1.549266763E1,-4.971743847E-1,-1.786460037E0,-4.302205861E-1,1.903604892E0
1.550261762E1,-9.671670373E-1,-1.365090382E0,-7.288998699E-1,1.824877762E0
1.551256763E1,-1.301269192E0,-1.042628133E0,-8.962758332E-1,1.893062414E0
1.552251763E1,-1.116212199E0,-9.663207990E-1,-8.426089185E-1,1.699910394E0
1.553246763E1,-5.455098447E-1,-1.045737097E0,-5.837971205E-1,1.316041848E0
1.554241762E1,3.312454976E-2,-1.234134970E0,-2.095186007E-1,1.252231770E0
1.555236763E1,3.876430986E-1,-1.126418148E0,-6.463749725E-2,1.193005877E0
1.556231763E1,3.198243506E-1,-8.121215361E-1,-7.152840436E-2,8.757541420E-1
1.557226763E1,-5.753300233E-2,-9.318619877E-1,9.273804624E-2,9.382308648E-1
1.558221762E1,-6.876347534E-1,-1.145177770E0,1.100936786E-1,1.340296347E0
1.559216763E1,-1.350567067E0,-1.138501419E0,-1.618573612E-1,1.773813601E0
1.560211763E1,-1.723577618E0,-1.169077095E0,-4.077328159E-1,2.122193938E0
1.561206763E1,-1.762615384E0,-1.330546201E0,-4.906474668E-1,2.262277861E0
1.562201762E1,-1.256740745E0,-1.406823129E0,-5.070571659E-1,1.953370314E0
1.563196762E1,-5.840590757E-1,-1.495030131E0,-4.213386655E-1,1.659447609E0
1.564191763E1,-4.016467050E-1,-1.330475450E0,-6.103616059E-1,1.517901936E0
1.565186763E1,-8.206464842E-1,-1.043853124E0,-7.481728774E-1,1.524090762E0
1.566181762E1,-1.429466325E0,-1.120241734E0,-4.651325566E-1,1.874743666E0
1.567176762E1,-1.714212133E0,-1.432228696E0,-2.871701362E-1,2.252169834E0
1.568171763E1,-1.719024976E0,-1.837893900E0,-1.383977473E-1,2.520328311E0
1.569166763E1,-1.648132310E0,-2.180410345E0,1.418429267E-1,2.736904967E0
1.570161862E1,-1.472630033E0,-1.792420104E0,3.532302976E-2,2.320055336E0
1.571156863E1,-1.510430820E0,-1.039244349E0,-1.968792593E-1,1.843960825E0
1.572151863E1,-1.595801631E0,-6.634098852E-1,-5.351181731E-2,1.729034133E0
1.573146863E1,-1.639483840E0,-7.802080178E-1,1.788881077E-1,1.824454101E0
1.574141862E1,-1.713895068E0,-1.083507187E0,3.463183039E-1,2.057027101E0
1.575136863E1,-1.472326416E0,-1.619810298E0,6.742874604E-1,2.290457172E0
1.576131863E1,-1.200466410E0,-1.685738239E0,6.750863363E-1,2.176826721E0
1.577126863E1,-1.741863177E0,-7.300389075E-1,4.654898214E-1,1.945179917E0
1.578121862E1,-2.415393131E0,6.513874251E-1,3.542956603E-1,2.526648960E0
1.579116863E1,-2.549916367E0,1.655982344E0,5.585440193E-1,3.091330203E0
1.580111863E1,-1.970128682E0,1.814774594E0,9.290743276E-1,2.835135439E0
1.581106863E1,-1.606655232E0,1.937166758E0,1.268850474E0,2.818499177E0
1.582101862E1,-1.260911271E0,1.811196683E0,1.497413310E0,2.666941559E0
1.583096862E1,-7.604146081E-1,1.429626101E0,1.398394222E0,2.139525079E0
1.584091863E1,-9.639751153E-1,9.661787117E-1,1.622547234E0,2.120237923E0
1.585086863E1,-1.151705675E0,8.171589124E-1,1.528709509E0,2.081136087E0
1.586081862E1,-1.584592518E0,1.035433719E0,1.198290954E0,2.240303025E0
1.587076862E1,-2.133126835E0,1.359201066E0,5.526563117E-1,2.589031987E0
1.588071863E1,-2.594505772E0,1.363451407E0,1.488297647E-1,2.934724900E0
1.589066863E1,-2.733212252E0,1.051029997E0,-1.588860986E-1,2.932636708E0
1.590061862E1,-2.546256595E0,5.768798643E-1,-3.655503809E-1,2.636254939E0
1.591056862E1,-1.905275752E0,-3.040867889E-1,-2.438885343E-1,1.944743192E0
1.592051863E1,-1.535558937E0,-9.460064024E-1,-1.101840547E-1,1.806933836E0
1.593046863E1,-1.689976447E0,-8.893386966E-1,-1.756395409E-1,1.917757273E0
1.594041962E1,-1.966218503E0,-2.444405115E-1,-4.814068195E-1,2.038999483E0
1.595036963E1,-2.246434180E0,5.405844426E-1,-6.517718795E-1,2.400730024E0
1.596031963E1,-1.916250391E0,6.810228682E-1,-5.420857152E-1,2.104676847E0
1.597026963E1,-1.444103222E0,5.893689322E-1,-3.637663954E-1,1.601597903E0
1.598021962E1,-1.366762100E0,4.959666789E-1,-3.402298906E-1,1.493244107E0
1.599016963E1,-1.426782015E0,-1.424656552E-1,-2.128196463E-1,1.449584624E0
1.600011963E1,-1.306281425E0,-9.389587533E-1,-6.421499938E-2,1.610011885E0
1.601006963E1,-1.074511684E0,-1.227604800E0,-4.065662599E-1,1.681334300E0
1.602001962E1,-1.390002590E0,-5.078026128E-1,-6.388495329E-1,1.611862097E0
