"Time (s)","Linear Acceleration x (m/s^2)","Linear Acceleration y (m/s^2)","Linear Acceleration z (m/s^2)","Absolute acceleration (m/s^2)"
3.082499898E-4,-3.108032662E-3,-9.820464926E-3,-1.912799656E-2,2.172513869E-2
1.025724999E-2,-1.530867753E-2,-8.381981354E-3,4.822783470E-3,1.810724881E-2
2.020725000E-2,-9.641304868E-3,-1.699203153E-2,-3.020379245E-2,3.597155784E-2
3.015725000E-2,-4.067108505E-3,1.248106454E-4,-8.349823952E-3,9.288514914E-3
4.010625000E-2,-5.640818076E-3,1.812154229E-2,-1.044488132E-2,2.166344084E-2
5.005624998E-2,-7.338602822E-3,4.876374572E-3,-2.810815036E-2,2.945678593E-2
6.000624999E-2,-7.036986994E-3,2.580641219E-3,9.314614534E-3,1.195579102E-2
6.995524999E-2,-7.923191912E-3,7.990179076E-3,-1.613246799E-2,1.966917525E-2
7.990524999E-2,1.378791723E-3,-8.593831002E-4,-1.313869357E-2,1.323876409E-2
8.985525000E-2,-9.683628660E-4,3.363343568E-3,-6.253012419E-3,7.165889401E-3
9.980425000E-2,-2.371630669E-3,1.517197145E-3,-1.792873263E-2,1.814844272E-2
1.097542500E-1,-1.064558700E-4,-2.537616219E-3,-8.648031950E-3,9.013283837E-3
1.197042500E-1,-9.410230215E-3,-1.434860126E-2,-1.703060031E-2,2.417594130E-2
1.296532500E-1,-2.570454273E-3,-1.960758017E-2,-1.298900485E-2,2.365964248E-2
1.396032500E-1,-1.447391440E-3,-2.200862964E-2,-2.359351516E-3,2.218200307E-2
1.495532500E-1,-6.467006807E-3,-2.061411439E-2,-2.406421602E-2,3.233961010E-2
1.595022500E-1,-8.439382282E-3,-2.031918860E-2,-1.927359223E-2,2.925002489E-2
1.694522500E-1,-1.288754195E-2,-1.081762990E-2,-6.848258972E-3,1.816613622E-2
1.794022500E-1,-1.011166312E-2,-1.567734447E-3,-1.373394012E-2,1.712672279E-2
1.893512500E-1,-5.949139930E-3,-1.282451993E-3,-1.732705414E-2,1.836474215E-2
1.993012500E-1,-7.290788130E-3,-1.390595790E-3,-2.346429169E-2,2.461020790E-2
2.092502500E-1,-4.122570259E-3,3.089006371E-3,-2.076931000E-2,2.139863976E-2
2.192002500E-1,-7.203312870E-3,1.032592703E-2,-2.091958344E-2,2.441600820E-2
2.291502500E-1,-2.569526942E-3,-4.846928359E-3,-1.912390351E-2,1.989519713E-2
2.390992500E-1,2.056808355E-3,1.231768511E-3,-1.029343843E-2,1.056894456E-2
2.490492500E-1,-8.449226618E-4,4.082898272E-3,-5.653672814E-3,7.024810951E-3
2.589992500E-1,-2.794955377E-3,3.627023301E-3,-9.546748996E-3,1.058808245E-2
2.689482500E-1,3.404523041E-3,-2.715227678E-3,-1.493495822E-2,1.555687036E-2
2.788982500E-1,-2.337876703E-3,-3.301365366E-3,-2.182063937E-2,2.219245330E-2
2.888482500E-1,-1.030638910E-2,-1.592871993E-2,-1.029519260E-2,2.158556846E-2
2.987972500E-1,2.619643975E-4,-8.747544251E-3,-1.792873263E-2,1.995062930E-2
3.087472500E-1,-1.307383059E-2,-1.365419187E-2,-1.403741062E-2,2.354593168E-2
3.186972500E-1,-1.062888589E-2,-1.360904725E-2,-9.546748996E-3,1.973118848E-2
3.286462500E-1,-7.783164801E-3,-4.628845488E-3,-1.942620456E-2,2.143318195E-2
3.385962500E-1,-1.012828657E-2,-1.457771162E-2,-9.546748996E-3,2.015520482E-2
3.485462500E-1,-1.087478415E-2,-5.702725472E-3,-1.014491916E-2,1.592800655E-2
3.584952500E-1,-1.348424118E-2,-5.154375415E-3,-1.014608860E-2,1.764470062E-2
3.684452500E-1,-8.496273863E-3,-9.391494000E-3,-1.328955173E-2,1.835753291E-2
3.783952500E-1,-1.416884049E-2,-7.166559922E-3,-9.097682834E-3,1.829982117E-2
3.883442500E-1,-1.800060770E-3,-5.971064705E-3,-1.388772190E-2,1.522375289E-2
3.982942500E-1,-4.495914979E-3,-1.094318972E-2,-1.478526950E-2,1.893596702E-2
4.082442500E-1,-3.144312808E-3,-5.971254283E-3,-1.792814791E-2,1.915622792E-2
4.181896250E-1,-7.988657886E-3,-2.510856071E-3,-1.628215671E-2,1.830933314E-2
4.281396250E-1,-2.180737350E-3,-4.037310546E-3,-7.000286579E-3,8.370155556E-3
4.380896250E-1,-4.447584087E-3,-1.027663683E-2,-1.433444917E-2,1.818974166E-2
4.480386250E-1,5.571848340E-4,-1.060168491E-2,-1.418534517E-2,1.771807539E-2
4.579886250E-1,-6.452146657E-3,8.502502518E-3,-1.238908052E-2,1.635273866E-2
4.679386250E-1,-9.457231779E-3,6.439885776E-4,-1.373686373E-2,1.668997841E-2
4.778876250E-1,-5.495756879E-3,-1.115110848E-2,-2.197032809E-2,2.524372953E-2
4.878376250E-1,-8.805417982E-3,1.180018368E-3,-1.732997775E-2,1.947449506E-2
4.977876250E-1,-8.718975121E-3,7.676245265E-3,-6.103323698E-3,1.312234082E-2
5.077366250E-1,-1.173072059E-2,-7.384517170E-3,-1.688091159E-2,2.184275796E-2
5.176866250E-1,-9.998478382E-3,-6.356174662E-4,-2.122246921E-2,2.346842089E-2
5.276366250E-1,-8.235931154E-3,3.422891521E-3,-7.899588346E-3,1.191428741E-2
5.375856250E-1,1.190593606E-4,-1.006969793E-2,-1.867717624E-2,2.121909290E-2
5.475356250E-1,-4.098117021E-3,-3.010671954E-3,-1.149153292E-2,1.256638522E-2
5.574856250E-1,-3.016555714E-3,-6.245833591E-3,-7.301418185E-3,1.007078712E-2
5.674346250E-1,-6.151914974E-3,-7.465268131E-3,-1.568340182E-2,1.842675714E-2
5.773846250E-1,-9.727103622E-3,-7.480708435E-3,-9.546164274E-3,1.554692239E-2
5.873346250E-1,-8.358969362E-3,-8.170079172E-3,-7.300248742E-3,1.378100846E-2
5.972836250E-1,-1.358038219E-2,-9.043682883E-3,-2.376600802E-2,2.882773175E-2
6.072336250E-1,-1.043165199E-2,-4.779482097E-3,-2.511320651E-2,2.761043197E-2
6.171836250E-1,-5.078763608E-3,-3.609260099E-3,-1.328721285E-2,1.467551101E-2
6.271326250E-1,2.804872803E-3,-5.513508660E-3,-7.899003625E-3,1.003296304E-2
6.370826250E-1,-1.152358297E-3,-1.039114632E-2,-2.659313679E-3,1.078776162E-2
6.470326250E-1,-1.018760383E-2,-8.699955682E-3,-9.694098830E-3,1.653638572E-2
6.569816250E-1,-7.347903550E-3,-2.189215813E-3,-2.107044160E-2,2.242203964E-2
6.669316250E-1,-3.643555390E-3,-4.290376212E-3,-1.792639375E-2,1.878931656E-2
6.768816250E-1,4.280696330E-3,1.392746697E-2,-1.927359223E-2,2.416133388E-2
6.868306250E-1,1.240290371E-2,2.142646623E-2,-1.553195894E-2,2.922613940E-2
6.967806250E-1,1.773464619E-2,5.672192043E-3,-1.837662935E-2,2.616088577E-2
7.067306250E-1,-2.817978789E-3,7.866617816E-3,-2.167036593E-2,2.322562033E-2
7.166796250E-1,-7.456360264E-3,-1.999800287E-3,-1.852690279E-2,2.007094011E-2
7.266296250E-1,-1.290501965E-2,-1.491596619E-2,-1.508347750E-2,2.483016055E-2
7.365796250E-1,-6.942563597E-3,-2.223532345E-2,-1.388596773E-2,2.711879234E-2
7.465286250E-1,-4.949403098E-3,-2.158102459E-2,-1.149094820E-2,2.494552272E-2
7.564786250E-1,-8.519936814E-3,-2.658116370E-2,-2.002379000E-2,3.435258000E-2
7.664286250E-1,-6.223502252E-3,-2.198507176E-2,-6.251842976E-3,2.368883494E-2
7.763786250E-1,-4.934780491E-3,-2.720793497E-2,-5.354295373E-3,2.816544448E-2
7.863276250E-1,-7.674242137E-4,-1.447902386E-2,-1.283873141E-2,1.936657162E-2
7.962776250E-1,3.079326488E-3,-1.582788287E-2,-1.867717624E-2,2.467470445E-2
8.062276250E-1,5.356780440E-3,1.762063005E-3,-1.688091159E-2,1.779789703E-2
8.161766250E-1,6.480889376E-3,1.439959081E-3,-9.696437716E-3,1.175143879E-2
8.261266250E-1,-6.141316895E-3,1.130129742E-2,-1.343865573E-2,1.860195055E-2
8.360766250E-1,-4.401651467E-3,3.911337310E-3,-1.014608860E-2,1.173099352E-2
8.460256250E-1,-7.106742449E-3,5.120845288E-3,-4.009435773E-3,9.633505069E-3
8.559756250E-1,-4.291097978E-3,1.353717447E-2,-1.508581638E-2,2.071836071E-2
8.659256250E-1,-6.187651511E-3,9.655502639E-3,-1.194176853E-2,1.655661795E-2
8.758746250E-1,-1.209991744E-2,3.232123826E-3,-5.953634977E-3,1.386724183E-2
8.858246250E-1,-1.157448116E-2,-4.973022651E-3,-1.612077355E-3,1.270032920E-2
8.957746250E-1,-1.052208741E-2,-1.078164896E-2,-1.119157076E-2,1.876724630E-2
9.057236250E-1,-1.908892072E-3,-1.279013556E-2,-1.238908052E-2,1.790867815E-2
9.156736250E-1,-1.807643878E-3,-1.303542854E-2,-1.029343843E-2,1.670762845E-2
9.256236250E-1,-3.001476293E-3,-1.351311409E-2,-4.005927444E-3,1.441043257E-2
9.355726250E-1,-1.944391066E-3,-2.000230605E-2,-8.496589065E-3,2.181891220E-2
9.455226250E-1,-6.590323672E-3,-1.174470822E-2,-5.503984094E-3,1.454868992E-2
9.554726250E-1,7.025548378E-3,-1.919703939E-2,-6.850597858E-3,2.155957658E-2
9.654216250E-1,2.896564454E-3,-1.674471486E-2,3.328819871E-3,1.731636807E-2
9.753716250E-1,-2.176904683E-3,-8.018225154E-3,-1.044195771E-2,1.334411217E-2
9.853216250E-1,-1.603206033E-3,-6.215361832E-4,-1.717853487E-2,1.726437479E-2
9.952706250E-1,-8.497840734E-3,3.891653207E-3,-1.283756196E-2,1.587958624E-2
1.005220625E0,2.342307796E-3,1.556654430E-3,-5.503399372E-3,6.180370820E-3
1.015170625E0,-6.784140598E-4,1.103705352E-3,-2.316725314E-2,2.320344865E-2
1.025119625E0,-1.845490895E-3,8.021059684E-3,-7.600210905E-3,1.120296572E-2
1.035069625E0,-7.003630456E-3,9.434395661E-3,-1.163595915E-4,1.175041278E-2
1.045019625E0,-8.358032894E-3,5.913243508E-3,-8.947994113E-3,1.359741745E-2
1.054968625E0,-3.920900705E-3,4.009328422E-3,-9.546748996E-3,1.107197332E-2
1.064918625E0,-9.276584792E-3,-1.645230611E-3,-2.362859845E-3,9.713131103E-3
1.074868625E0,3.206786653E-4,-1.815956974E-2,-1.358892918E-2,2.268329351E-2
1.084818625E0,-4.696310023E-3,-1.762299178E-2,-6.403285861E-3,1.932943964E-2
1.094767625E0,-4.869259698E-3,-2.568182310E-2,-7.002625465E-3,2.706108814E-2
1.104717625E0,-5.061916318E-3,-1.637538782E-2,-8.200719953E-3,1.900074027E-2
1.114667625E0,-2.598022982E-3,-2.848802295E-2,-4.309397936E-3,2.892901805E-2
1.124616625E0,-4.550970169E-3,-2.283529346E-2,-6.554144025E-3,2.418922819E-2
1.134566625E0,5.476497612E-3,-2.041021101E-2,-1.104480565E-2,2.384442223E-2
1.144516625E0,-9.714152953E-3,-6.205129204E-3,-9.547918439E-3,1.496766991E-2
1.154465625E0,-2.804553034E-3,-2.221638167E-3,-2.751056492E-2,2.774224894E-2
1.164415625E0,-7.333290079E-3,-4.665472812E-3,-2.287021458E-2,2.446610911E-2
1.174365625E0,-2.333536972E-3,5.195755886E-3,-7.003210187E-3,9.026972192E-3
1.184314625E0,-1.596815666E-2,1.029666354E-2,-1.179383397E-2,2.236286714E-2
1.194264625E0,-2.118356239E-2,1.436631193E-2,-1.942795873E-2,3.213377995E-2
1.204214625E0,-7.819856079E-3,2.968718181E-3,-1.014667332E-2,1.314984472E-2
1.214163625E0,-3.773313328E-3,2.465528729E-3,-1.733056247E-2,1.790712487E-2
1.224113625E0,-5.999384872E-3,-2.795585780E-4,-1.179207981E-2,1.323343939E-2
1.234063625E0,-1.478879610E-3,-2.849683946E-3,-1.029460788E-2,1.078363273E-2
1.244013625E0,-3.820109325E-3,-1.274258354E-2,-1.239024997E-2,1.817924544E-2
1.253962625E0,-6.151015051E-3,-1.430497098E-2,-4.905229211E-3,1.632569921E-2
1.263912625E0,-1.593562695E-3,-1.631081035E-2,-7.600210905E-3,1.806502649E-2
1.273862625E0,2.041555345E-3,-2.722824719E-2,-1.747908175E-2,3.242011246E-2
1.283811625E0,-2.310038474E-3,-2.302784272E-2,-1.912565768E-2,3.002346749E-2
1.293761625E0,-1.423407349E-2,-1.146639218E-2,-1.014374971E-2,2.090413012E-2
1.303711625E0,-1.327987185E-2,-7.079799576E-3,-7.000871301E-3,1.659791425E-2
1.313660625E0,-7.797353435E-3,-3.398351488E-3,-1.568106294E-2,1.783937354E-2
1.323610625E0,-8.006400531E-3,-9.901809746E-3,-6.250088811E-3,1.418491790E-2
1.333560625E0,-3.372208038E-3,1.113748630E-2,-1.238732636E-2,1.699591841E-2
1.343509625E0,-1.224569583E-2,6.819616752E-3,-8.644523621E-3,1.646790903E-2
1.353459625E0,-9.214777895E-3,1.056958461E-2,-1.163712859E-2,1.822226694E-2
1.363409625E0,-5.498301331E-3,1.006774048E-2,-1.463090301E-2,1.859177341E-2
1.373359625E0,-8.297966458E-3,-5.666070739E-3,-1.163712859E-2,1.537476396E-2
1.383308625E0,-1.078003641E-2,-1.035005821E-2,-2.355843186E-3,1.512887594E-2
1.393258625E0,-1.811006027E-3,-7.942167954E-3,-5.050240159E-3,9.584503133E-3
1.403208625E0,-1.482922412E-3,-5.737758516E-3,-1.253409147E-2,1.386450074E-2
1.413157875E0,-2.307868609E-3,-2.193949088E-2,-1.462973356E-2,2.647067475E-2
1.423107875E0,-5.988946678E-3,-1.980030531E-2,-1.028876066E-2,2.310363973E-2
1.433057875E0,5.595602654E-4,-1.564380978E-2,-1.388187468E-2,2.092243620E-2
1.443006875E0,-3.934385846E-3,-1.762469341E-2,-9.988798499E-3,2.063698876E-2
1.452956875E0,2.450399059E-3,-1.507030984E-2,-1.163478971E-2,1.919601588E-2
1.462906875E0,-8.090499938E-3,-1.705631892E-2,-5.199344158E-3,1.958079120E-2
1.472855875E0,-1.179726007E-3,-7.374855559E-3,-5.349032879E-3,9.186533661E-3
1.482805875E0,-1.047301191E-2,-4.005765275E-3,-1.088751554E-2,1.562907958E-2
1.492755875E0,1.942783082E-3,-2.299223409E-3,-2.205569744E-3,3.731671514E-3
1.502705875E0,-9.440457579E-3,5.076141497E-3,-1.567696989E-2,1.899096724E-2
1.512654875E0,-6.983946352E-3,-4.321818701E-3,-9.389458895E-3,1.247459666E-2
1.522604875E0,-2.269546506E-3,8.652666325E-3,-3.552183509E-3,9.624836807E-3
1.532554875E0,-1.799366414E-3,6.651662334E-3,-7.893156409E-3,1.047779793E-2
1.542503875E0,-8.640412297E-3,6.397052638E-3,-5.047901273E-3,1.187688151E-2
1.552453875E0,-6.140681924E-3,-1.942584368E-3,-1.268144131E-2,1.422324021E-2
1.562403875E0,-5.290935310E-3,-1.277022991E-2,-9.536808729E-3,1.679355499E-2
1.572352875E0,-1.639618655E-3,-1.228935580E-2,-1.537583828E-2,1.975178519E-2
1.582302875E0,-2.480119360E-3,-9.707465200E-3,-9.238600731E-3,1.362855884E-2
1.592252875E0,-5.077927639E-3,-1.719527709E-2,-1.282996058E-2,2.204701322E-2
1.602201875E0,-9.414748102E-4,-1.783819215E-2,-3.848637342E-3,1.827291667E-2
1.612151875E0,-1.218012479E-2,-1.939800545E-2,-1.103369594E-2,2.542401427E-2
1.622101875E0,-1.115625906E-3,-9.988154392E-3,-1.902683973E-3,1.022878564E-2
1.632051875E0,-6.158397160E-3,-6.290295271E-3,-8.936884403E-3,1.254438412E-2
1.642000875E0,-7.769972021E-3,-1.441591962E-2,-2.136104822E-2,2.691626989E-2
1.651950875E0,-1.158910376E-2,-3.921081147E-3,-1.402630091E-2,1.861234323E-2
1.661900875E0,5.071089137E-5,1.141433597E-3,-1.303344369E-3,1.733248048E-3
1.671849875E0,-3.631321918E-3,-6.764447358E-3,-5.494043827E-3,9.440803171E-3
1.681799875E0,-2.186406408E-3,2.717699041E-3,-8.188440800E-3,8.900383351E-3
1.691749875E0,-7.960819658E-3,4.205520779E-3,-1.612077355E-2,1.846457134E-2
1.701698875E0,-3.012279938E-3,7.042902731E-4,-7.138865590E-3,7.780312148E-3
1.711648875E0,-2.226327360E-3,-9.811056848E-4,1.542495489E-3,2.880693356E-3
1.721598875E0,2.435237411E-3,1.717567064E-3,-1.731711388E-2,1.757164907E-2
1.731547875E0,-5.510585052E-3,-3.550577809E-3,-1.656925499E-2,1.781890461E-2
1.741497875E0,1.555898404E-3,-8.444256485E-3,-1.103077233E-2,1.397870615E-2
1.751447875E0,-1.254542959E-3,-1.257402841E-2,-2.049449086E-3,1.280157452E-2
1.761397875E0,9.501725435E-4,-1.264102243E-2,-6.240733266E-3,1.412957988E-2
1.771346875E0,-3.988664453E-3,-1.458441307E-2,-8.186686635E-3,1.719407999E-2
1.781296875E0,-5.852660872E-3,-2.018378216E-2,-7.886724472E-3,2.244636105E-2
1.791246875E0,-7.749017975E-3,-1.490827573E-2,-1.671777427E-2,2.370206618E-2
1.801195875E0,-6.581182829E-3,-1.808739318E-2,-1.552143395E-2,2.472611314E-2
1.811145875E0,-9.246275201E-3,-1.206811635E-2,-1.088108361E-2,1.869574866E-2
1.821095875E0,-7.351425583E-3,-1.386423025E-2,-2.106050134E-2,2.626414010E-2
1.831045875E0,-7.008500090E-3,-9.438246600E-3,-1.252882898E-2,1.718054504E-2
1.840994875E0,-3.664198802E-3,-2.378782087E-3,-4.446222782E-3,6.233285980E-3
1.850944875E0,-5.794407986E-4,7.477583829E-5,-1.702007532E-2,1.703010003E-2
1.860894875E0,-1.654497078E-3,1.209683166E-2,-1.926482141E-2,2.280798195E-2
1.870843875E0,4.958461714E-3,1.021967901E-2,-4.595326781E-3,1.225337545E-2
1.880793875E0,-3.705974417E-3,9.046195359E-3,-1.043318689E-2,1.429752725E-2
1.890743875E0,-2.129880278E-3,2.246379198E-3,-1.162952721E-2,1.203447185E-2
1.900692875E0,-5.598197356E-3,3.272636351E-4,-7.287969589E-3,9.195728131E-3
1.910642875E0,-8.859477318E-3,-1.153739474E-2,-1.177863121E-2,1.871731735E-2
1.920592875E0,-1.150156455E-3,-1.107936360E-2,-1.237680137E-2,1.665113720E-2
1.930542875E0,-7.130789123E-3,-6.035297283E-3,-1.117987633E-2,1.456923476E-2
1.940491875E0,-4.186245524E-3,-1.860917723E-2,-1.177921593E-2,2.241820815E-2
1.950441875E0,-5.433543418E-3,-2.027893645E-2,-2.061085045E-2,2.942049990E-2
1.960391875E0,-4.271592032E-3,-1.089841740E-2,-1.267676353E-2,1.725463225E-2
1.970340875E0,-1.653546905E-3,-1.356791803E-2,-1.492150962E-2,2.023546556E-2
1.980290875E0,-5.737831607E-3,-1.570113305E-2,-5.640224218E-3,1.764257407E-2
1.990240875E0,-8.166445219E-3,-5.683907031E-3,-1.598628759E-3,1.007736278E-2
2.000189875E0,-3.893738561E-3,-6.369230398E-3,-9.532130957E-3,1.210742815E-2
2.010139875E0,-1.143678380E-2,-2.168688888E-3,-1.806438804E-2,2.149012216E-2
2.020089875E0,-5.249136854E-3,3.493037552E-3,-8.634583354E-3,1.069162190E-2
2.030039875E0,-7.970842151E-3,4.762879203E-3,-1.252707481E-2,1.559316986E-2
2.039988875E0,-8.165481342E-3,1.578145232E-3,-1.956302941E-2,2.125741630E-2
2.049938875E0,4.557237653E-3,2.186835813E-3,-1.896427453E-2,1.962636936E-2
2.059888875E0,-9.476600681E-5,-3.322166379E-3,-1.192890465E-2,1.238323610E-2
2.069837875E0,-1.080768278E-2,-9.009047267E-3,-1.627104700E-2,2.151083239E-2
2.079787875E0,-2.601280063E-3,-7.744797016E-3,-7.589101195E-3,1.115091905E-2
2.089737875E0,-8.745315000E-3,-2.006881813E-2,1.692768931E-3,2.195685456E-2
2.099687875E0,-1.196920476E-2,-1.417901145E-2,1.097405434E-2,2.155773868E-2
2.109636875E0,6.922189705E-4,-1.400531032E-2,-5.940771103E-3,1.522894105E-2
2.119586875E0,2.237578682E-3,-1.992349198E-2,1.843042374E-3,2.013328330E-2
2.129536875E0,3.754661623E-3,-2.199035024E-2,-1.477240562E-2,2.675625077E-2
2.139485875E0,-1.440781346E-3,-1.451029961E-2,-4.743261337E-3,1.533372668E-2
2.149435875E0,1.729103895E-3,-9.149611134E-3,-2.520149946E-4,9.314971591E-3
2.159385875E0,5.026385346E-3,-2.708953342E-3,-1.956185997E-2,2.037815848E-2
2.169334875E0,2.051787972E-3,-4.579744865E-3,-2.048279643E-3,5.420271802E-3
2.179284875E0,-2.729822877E-3,1.081460807E-4,-1.598628759E-3,3.165318692E-3
2.189234875E0,6.328957700E-3,2.611743382E-3,-1.297497153E-2,1.467060992E-2
2.199184875E0,1.815884798E-3,-1.388083315E-3,-1.581964195E-2,1.598390704E-2
2.209133875E0,-3.140055304E-3,5.525253341E-4,-1.986065269E-2,2.011493864E-2
2.219083875E0,2.281053644E-4,-4.398750700E-4,-1.566995323E-2,1.567778544E-2
2.229033875E0,-7.960371980E-3,-6.319042558E-3,-3.395478129E-3,1.071574042E-2
2.238982875E0,-7.362896176E-3,-8.941269815E-3,-1.522147179E-2,1.912725148E-2
2.248932875E0,-3.827148825E-3,-1.267284636E-2,-1.162777305E-2,1.761968243E-2
2.258882875E0,-5.465524946E-3,-9.562374309E-3,-8.484309912E-3,1.390303852E-2
2.268832875E0,-4.246988045E-3,-2.070111228E-2,-9.998738766E-4,2.115591418E-2
2.278781875E0,-3.172891075E-3,-1.703567551E-2,1.545419097E-3,1.739740780E-2
2.288731875E0,-1.168058985E-3,-9.688153400E-3,-7.286215425E-3,1.217840767E-2
2.298681875E0,-4.950618222E-3,-1.549785323E-2,-3.843959570E-3,1.671729944E-2
2.308630875E0,-7.162245316E-4,-9.106615826E-3,-5.789328218E-3,1.081479314E-2
2.318580875E0,-6.087851417E-3,-2.902146718E-3,-9.830923676E-3,1.192188956E-2
2.328530875E0,-3.642267175E-3,-4.340689676E-3,-3.095515966E-3,6.456772889E-3
2.338480875E0,-1.526712575E-3,1.553052454E-3,-9.083064795E-3,9.340497271E-3
2.348429875E0,-6.709478963E-3,1.647320534E-3,-7.287969589E-3,1.004217475E-2
2.358379875E0,-9.194161892E-3,-6.314319104E-3,-6.689799428E-3,1.300602380E-2
2.368329875E0,-3.473835387E-3,5.274426062E-3,-1.163011193E-2,1.323429659E-2
2.378278875E0,1.216481240E-3,2.849604003E-3,-1.073314905E-2,1.117141702E-2
2.388228875E0,-3.137360103E-3,-5.594979103E-3,-1.761824548E-2,1.874965049E-2
2.398178875E0,-4.379244754E-3,-9.427356161E-4,-2.165925622E-2,2.211763810E-2
2.408127875E0,-3.945107264E-3,-8.171835621E-3,-1.417540491E-2,1.683106868E-2
2.418077417E0,2.149171522E-4,-1.050078847E-2,-1.477415979E-2,1.812701148E-2
2.428027417E0,2.662392603E-3,-8.603435510E-3,-1.312582970E-2,1.591838064E-2
2.437977417E0,-1.494689933E-3,-1.432107367E-2,-9.682404399E-3,1.735154759E-2
2.447926417E0,-5.935344156E-3,-1.664630805E-2,-6.239563823E-3,1.874193263E-2
2.457876417E0,3.403627686E-4,-1.390670479E-2,-5.939601660E-3,1.512584387E-2
2.467826417E0,-1.048911459E-2,-1.316851894E-2,-1.162718832E-2,2.046027674E-2
2.477775417E0,-5.346817332E-3,-2.446230634E-3,4.389504790E-3,7.337591717E-3
2.487725417E0,-1.665725559E-3,-4.268273280E-3,-8.035828471E-3,9.250261491E-3
2.497675417E0,2.912986907E-3,-9.595235204E-3,-1.417365074E-2,1.736221203E-2
2.507625417E0,-7.259450709E-3,-1.302677192E-2,-1.088108361E-2,1.846061732E-2
2.517574417E0,-2.928783526E-3,1.474580993E-3,2.440627813E-3,4.087643107E-3
2.527524417E0,4.054756262E-3,8.429741228E-3,-1.207976282E-2,1.527816269E-2
2.537474417E0,8.408570196E-4,8.992035524E-4,-9.086573124E-3,9.169592068E-3
2.547423417E0,7.318667471E-3,-1.237755055E-3,-1.163128138E-2,1.379788526E-2
2.557373417E0,6.182439267E-3,5.225097032E-3,-2.799646854E-3,8.565174650E-3
2.567323417E0,-7.351631150E-3,-1.755740703E-4,-1.642073572E-2,1.799216130E-2
2.577273417E0,-3.401407572E-3,-2.971660062E-3,-5.343185663E-3,6.996425517E-3
2.587222417E0,-2.422606512E-3,-1.174058548E-2,-8.935714960E-3,1.495183506E-2
2.597172417E0,-3.672407744E-3,-5.395799184E-3,-1.477357507E-2,1.615115314E-2
2.607122417E0,-1.013873390E-2,-8.764772981E-3,-2.948750854E-3,1.372262009E-2
2.617071417E0,1.038917745E-3,-1.834721283E-2,-3.248128295E-3,1.866145509E-2
2.627021417E0,2.498647724E-3,-1.494663209E-2,-1.028408289E-2,1.831413149E-2
2.636971417E0,1.482931548E-3,-6.237240925E-3,-8.788365126E-3,1.087830970E-2
2.646921417E0,3.471236117E-4,-3.180956121E-3,-1.133365810E-2,1.177670508E-2
2.656870417E0,1.814327063E-4,-1.059833419E-2,-1.792054653E-2,2.082074911E-2
2.666820417E0,-7.227249909E-5,-1.573348916E-2,-2.502608299E-3,1.593144541E-2
2.676770417E0,-5.040062349E-3,1.687278030E-3,-9.089496732E-3,1.052939155E-2
2.686719417E0,-9.504228774E-3,1.102855678E-3,4.899966717E-4,9.580540276E-3
2.696669417E0,-5.025302698E-3,-7.439499269E-3,-4.899381995E-3,1.022759798E-2
2.706619417E0,3.774208683E-3,5.325296838E-3,-9.240939617E-3,1.131363790E-2
2.716569417E0,-5.374733219E-4,-4.601918603E-4,-1.507938445E-2,1.509597593E-2
2.726518417E0,-2.527596010E-4,-2.600834670E-3,-1.717502654E-2,1.737267294E-2
2.736468417E0,-5.084807253E-3,-3.152160868E-3,-1.732529998E-2,1.832914079E-2
2.746418417E0,-3.638224374E-3,-1.956133463E-3,-1.178681731E-2,1.248968363E-2
2.756367417E0,-2.620731192E-3,-9.503598372E-3,-2.181654632E-2,2.394051602E-2
2.766317417E0,1.318327859E-3,-9.396329373E-3,-1.448121428E-2,1.731284382E-2
2.776267417E0,5.598476012E-3,1.977637969E-4,1.385790110E-3,5.770828225E-3
2.786217417E0,4.597181445E-3,-1.609983550E-2,-4.302965999E-3,1.728740283E-2
2.796166417E0,-8.533851360E-3,-2.091637204E-2,-1.298608124E-2,2.605685216E-2
2.806116417E0,-6.536268904E-3,-8.738433102E-3,-4.603512883E-3,1.184378973E-2
2.816066417E0,-1.799106030E-3,-9.425777870E-3,-1.178798676E-2,1.519995733E-2
2.826016417E0,5.473724753E-4,-1.652375406E-2,-6.399192810E-3,1.772804935E-2
2.835965417E0,-5.139515265E-3,-6.217006361E-3,-1.612954438E-2,1.803407849E-2
2.845915417E0,-3.244958008E-3,-4.356972801E-3,-1.627923310E-2,1.716177132E-2
2.855865417E0,4.516243190E-4,5.384438226E-3,-1.208736420E-2,1.324011000E-2
2.865814417E0,-2.609041329E-3,5.035366304E-3,-1.283580780E-2,1.403281769E-2
2.875764417E0,-3.873880869E-3,-4.073597544E-3,-1.448238373E-2,1.553514044E-2
2.885714417E0,-7.439905833E-3,3.310935614E-3,-2.208493352E-3,8.437531412E-3
2.895664417E0,-1.349774916E-3,-2.882999370E-3,-4.155616164E-3,5.234761064E-3
2.905613417E0,1.100583030E-3,1.094895699E-3,-9.844372272E-3,9.966029552E-3
2.915563417E0,2.063920945E-3,-6.639547634E-3,-1.433444917E-2,1.593172293E-2
2.925513417E0,1.548822359E-3,-9.595308295E-3,-1.867483735E-2,2.105275141E-2
2.935462417E0,-4.625412533E-3,-1.155330784E-2,-2.346546113E-2,2.656127311E-2
2.945412417E0,-3.950662119E-3,-1.877419662E-2,-1.852573335E-2,2.666985163E-2
2.955362417E0,2.870288529E-3,-1.323670524E-2,-2.152009249E-2,2.542760906E-2
2.965312417E0,-8.206932619E-4,-8.816552816E-3,-1.658036470E-2,1.879663892E-2
2.975261417E0,-2.443391536E-3,-6.768570102E-3,-2.059974074E-3,7.485131703E-3
2.985211417E0,1.842073929E-3,-6.558086327E-4,-1.238908052E-2,1.254243348E-2
2.995161417E0,-1.045224059E-2,-1.511973480E-3,-8.346900344E-3,1.346128309E-2
3.005111417E0,-2.962473538E-3,-4.757395154E-4,-9.844372272E-3,1.029146457E-2
3.015060417E0,-3.357384433E-3,9.362762701E-4,-8.347485065E-3,9.045946628E-3
3.025010417E0,-1.345165665E-3,7.498208969E-4,-6.700324416E-3,6.875030860E-3
3.034960417E0,-3.849153542E-3,-4.910343240E-3,-1.508289278E-2,1.632241123E-2
3.044909417E0,-9.726797557E-4,9.650961910E-3,-5.502814651E-3,1.115204648E-2
3.054859417E0,-3.912664354E-3,5.292209820E-4,-9.544994831E-3,1.032937285E-2
3.064809417E0,-5.959089333E-4,-5.291150012E-3,-2.809002399E-3,6.020122124E-3
3.074759417E0,-9.731383966E-3,-1.880137932E-3,-9.245032668E-3,1.355379584E-2
3.084708417E0,-4.469785234E-4,-9.578072713E-3,-8.346315622E-3,1.271220874E-2
3.094658417E0,-4.261642629E-3,-9.238100520E-3,-1.161841750E-3,1.023982301E-2
3.104608417E0,-5.269647790E-3,-1.189119011E-2,-4.305304885E-3,1.370055620E-2
3.114557417E0,-4.283976252E-3,-1.058781148E-2,-8.047522902E-3,1.397200162E-2
3.124507417E0,-1.573234941E-2,-4.796039311E-3,-1.044195771E-2,1.948187085E-2
3.134457417E0,-4.860730986E-3,-9.425270807E-3,-2.657559514E-3,1.093275162E-2
3.144407417E0,2.140830103E-3,-1.359989042E-2,-4.153862000E-3,1.438035961E-2
3.154356417E0,-5.620234050E-3,3.373569343E-4,-1.687681854E-2,1.779122942E-2
3.164306417E0,-6.696496317E-3,-3.864191850E-3,-1.612837493E-2,1.788573509E-2
3.174256417E0,-2.845775904E-3,-3.850026056E-5,-1.178798676E-2,1.212668770E-2
3.184206417E0,-1.248184112E-3,-6.826352470E-3,-6.848258972E-3,9.749651408E-3
3.194155417E0,6.616170192E-4,-6.999439190E-3,-1.014199555E-2,1.234058182E-2
3.204105417E0,-5.014266078E-3,3.076850558E-3,-2.256674409E-2,2.332097366E-2
3.214055417E0,-1.063541376E-2,-8.344022417E-4,-1.178974092E-2,1.589988188E-2
3.224004417E0,-1.477156509E-2,-4.545851571E-3,-2.659313679E-3,1.568234201E-2
3.233954417E0,-3.775926302E-3,-2.011394219E-3,-1.717970431E-2,1.770439398E-2
3.243904417E0,-3.491463829E-3,-2.802798869E-3,-1.403565645E-2,1.473246935E-2
3.253854417E0,-1.109605101E-3,-2.161032690E-3,-1.658094943E-2,1.675795840E-2
3.263803417E0,-7.533767349E-3,-9.409195532E-3,-4.305889606E-3,1.279966001E-2
3.273753417E0,-5.244143880E-3,-4.871367894E-3,-1.478526950E-2,1.642666930E-2
3.283703417E0,-2.209123755E-3,-1.317841809E-2,-1.448589206E-2,1.970766348E-2
3.293653417E0,5.016454216E-3,-1.154240370E-2,-7.449352741E-3,1.462479922E-2
3.303602417E0,1.144227013E-4,-2.309725100E-2,6.171736121E-3,2.390787366E-2
3.313552417E0,-9.234032594E-3,-1.078840296E-2,-7.899003625E-3,1.624965398E-2
3.323502417E0,4.909194354E-4,-7.731051492E-3,4.076678753E-3,8.753825947E-3
3.333452417E0,-7.292510318E-3,-1.986414046E-2,-1.658036470E-2,2.688258315E-2
3.343401417E0,-3.210167075E-4,-1.186440484E-2,-2.509040236E-3,1.213105258E-2
3.353351417E0,-1.082043702E-2,6.549932202E-4,-1.657977998E-2,1.980908826E-2
3.363301417E0,-5.112650050E-3,-2.413520487E-3,-8.496004343E-3,1.020521247E-2
3.373250417E0,1.029754062E-3,2.664621854E-3,-1.011568308E-3,3.030490636E-3
3.383200417E0,-1.175701022E-2,7.203678321E-4,-4.004758000E-3,1.244123409E-2
3.393150417E0,-3.044549259E-3,-4.152425320E-3,-1.268787324E-2,1.369284644E-2
3.403100417E0,-7.998209861E-3,-2.803262535E-3,-1.104129732E-2,1.391904768E-2
3.413049167E0,-4.131514672E-3,-2.459793433E-3,-4.005927444E-3,6.258390520E-3
3.422999167E0,-7.817818690E-4,-1.674761334E-3,-1.029285371E-2,1.045747799E-2
3.432949167E0,-2.439166009E-3,-2.373558423E-4,-1.610907912E-3,2.932727897E-3
3.442899167E0,-5.953703499E-3,-1.107942527E-2,-3.855654001E-3,1.315546721E-2
3.452848167E0,-6.097293757E-3,-2.608764956E-3,-1.208911836E-2,1.378874282E-2
3.462798167E0,-6.608646470E-3,-9.173150745E-3,-2.809002399E-3,1.164952348E-2
3.472748167E0,-2.597337761E-3,-2.720117869E-3,3.344607353E-4,3.775853367E-3
3.482697167E0,-4.441622668E-3,-1.423236501E-2,-1.643009126E-2,2.218639503E-2
3.492647167E0,-9.062234089E-3,-1.078260599E-2,-1.418476045E-2,1.998990014E-2
3.502597167E0,-1.788964765E-3,-7.571497879E-3,7.841116190E-4,7.819386554E-3
3.512547167E0,-5.615154281E-5,-1.022961242E-2,-7.897249460E-3,1.292341566E-2
3.522496167E0,-3.498919029E-3,-3.456337138E-3,-7.896664739E-3,9.303011060E-3
3.532446167E0,-8.442091187E-3,-5.374664697E-3,-1.388479829E-2,1.711559370E-2
3.542396167E0,-3.565545310E-3,-4.138640966E-3,-1.223822236E-2,1.340207256E-2
3.552346167E0,-4.954377799E-3,-5.316290755E-3,-8.794797063E-3,1.140864857E-2
3.562295167E0,-2.208470511E-3,-2.866499259E-3,-7.746976018E-3,8.550426739E-3
3.572245167E0,-8.078353261E-3,-2.053855055E-3,-7.896080017E-3,1.148155876E-2
3.582195167E0,-7.579745650E-3,-2.445565970E-3,-1.508113861E-2,1.705503090E-2
3.592145167E0,-2.494678013E-3,-1.611687465E-2,-5.950126648E-3,1.736033047E-2
3.602094167E0,-8.807217828E-3,-4.306599952E-3,-9.991722107E-3,1.399815701E-2
3.612044167E0,-6.464681625E-3,-6.199357363E-3,-8.792458177E-3,1.255115377E-2
3.621994167E0,1.365224356E-3,-1.599755034E-2,-1.163595915E-2,1.982879219E-2
3.631943167E0,-1.672714809E-3,-2.082835546E-2,-1.088693082E-2,2.356148613E-2
3.641893167E0,-1.891117450E-3,-1.337428154E-2,-9.239185452E-3,1.636491002E-2
3.651843167E0,-6.514401231E-3,-1.643042930E-2,-1.253233731E-2,2.166693123E-2
3.661793167E0,-1.053490103E-2,-1.099649988E-2,-2.046583951E-2,2.550995367E-2
3.671742167E0,-8.066106085E-3,-1.106233130E-2,-1.851930141E-2,2.303045302E-2
3.681692167E0,-6.105584926E-3,-9.626488115E-3,-1.432801723E-2,1.830954720E-2
3.691642167E0,-4.100387385E-3,-2.146990236E-3,-2.502608299E-3,5.261729001E-3
3.701592167E0,-5.842446517E-3,-4.179749633E-3,-6.844750643E-3,9.922454317E-3
3.711541167E0,-1.330931350E-3,1.496960297E-3,-1.013731778E-2,1.033331893E-2
3.721491167E0,-4.505325342E-3,-1.112218989E-2,-2.286027431E-2,2.581846638E-2
3.731441167E0,-3.571826499E-3,-1.255437629E-2,-1.903268695E-3,1.319063077E-2
3.741391167E0,2.654740973E-3,-7.622272724E-3,-1.118338466E-2,1.379183757E-2
3.751340167E0,-4.849091372E-3,2.850289224E-5,-1.073490322E-2,1.177933133E-2
3.761290167E0,-3.630929058E-3,-4.694064783E-3,-3.699533343E-3,6.993170738E-3
3.771240167E0,-2.880713018E-4,-2.457342627E-3,-7.592024803E-3,7.985008358E-3
3.781189167E0,7.286425559E-3,-4.806267370E-3,-1.402922451E-2,1.652305492E-2
3.791139167E0,9.272770397E-4,-8.661720373E-3,-9.837355614E-3,1.313996986E-2
3.801089167E0,1.550768386E-3,-1.528585511E-2,-1.881809413E-2,2.429368058E-2
3.811039167E0,-3.328829007E-3,-5.728016964E-3,-8.789534569E-3,1.100668882E-2
3.820988167E0,1.986417929E-3,-2.018684966E-3,-1.941743374E-2,1.962288659E-2
3.830938167E0,4.515603650E-5,-1.077933292E-2,-6.394515038E-3,1.253339060E-2
3.840888167E0,-3.259457275E-4,-1.590396976E-4,3.634044528E-3,3.652097189E-3
3.850838167E0,-5.469037844E-3,1.261737775E-3,1.988053322E-3,5.954386044E-3
3.860787167E0,-2.360041304E-3,-4.967703056E-3,-2.652881742E-3,6.106197683E-3
3.870737167E0,1.751154293E-3,-3.191638710E-3,-5.347863436E-3,6.469369547E-3
3.880687167E0,-2.905376391E-3,-2.858057341E-3,-1.163362026E-2,1.232683350E-2
3.890637167E0,3.450551592E-3,-2.293965484E-3,-1.058521450E-2,1.136729299E-2
3.900586167E0,5.094249593E-4,3.307751622E-3,-1.163303554E-2,1.210488540E-2
3.910536167E0,3.602113249E-4,-8.032541696E-3,-1.073548794E-2,1.341276182E-2
3.920486167E0,-4.172678157E-3,-1.510976713E-2,-8.339883685E-3,1.775584314E-2
3.930436167E0,4.676895440E-3,-2.559100168E-3,-6.993269920E-3,8.793643659E-3
3.940385167E0,-8.488836936E-3,-2.429682557E-3,-1.902683973E-3,9.032381533E-3
3.950335167E0,-1.218425439E-2,-3.421157913E-3,-1.103369594E-2,1.678996196E-2
3.960285167E0,2.891420731E-3,-1.970626564E-2,-1.163303554E-2,2.306566138E-2
3.970235167E0,-8.546984755E-6,-1.548419678E-2,-4.597665668E-3,1.615236678E-2
3.980184167E0,4.285410647E-3,-8.339022591E-3,-1.178213954E-2,1.505731896E-2
3.990134167E0,8.313004766E-4,-1.197020518E-2,-1.986416101E-2,2.320693356E-2
4.000084167E0,3.014061511E-3,-8.278296059E-3,-1.477415979E-2,1.720146941E-2
4.010034167E0,-1.746243546E-3,-1.140593060E-2,-1.207976282E-2,1.670524735E-2
4.019983167E0,-3.662051777E-3,-5.335972575E-4,-1.447419763E-2,1.493980409E-2
4.029933167E0,1.892931000E-3,-1.358367582E-3,-1.971447229E-2,1.985166915E-2
4.039883167E0,-3.611980425E-3,8.059244743E-4,-1.896661341E-2,1.932429407E-2
4.049833167E0,-2.302277209E-3,2.651509016E-3,-1.522439539E-2,1.562412223E-2
4.059782167E0,-5.221942733E-3,-6.399937416E-4,-4.896458387E-3,7.187042691E-3
4.069732167E0,-2.291254294E-3,-4.408690967E-3,-1.372750819E-2,1.459900282E-2
4.079682167E0,6.338107679E-4,-1.006475292E-2,-1.193182826E-2,1.562272361E-2
4.089632167E0,2.496934673E-3,-2.943365020E-3,2.289184928E-3,4.487588220E-3
4.099581167E0,-4.308328992E-3,-4.192608939E-3,-8.637506962E-3,1.052360180E-2
4.109531167E0,-3.071798198E-4,-1.143438324E-2,-1.806672692E-2,2.138331362E-2
4.119481167E0,-2.157512940E-3,-9.172218845E-3,-9.833262563E-3,1.361901293E-2
4.129430167E0,6.024386287E-3,-2.980807757E-3,-2.199137807E-3,7.072103796E-3
4.139380167E0,-2.106975638E-3,-1.917944293E-2,-1.282762170E-2,2.316977030E-2
4.149330167E0,-4.214028935E-3,-3.020207940E-3,-1.043260217E-2,1.164984480E-2
4.159280167E0,-1.682581985E-4,-7.606875817E-3,-7.588516474E-3,1.074609012E-2
4.169230167E0,-4.325925456E-3,-6.146003804E-3,-1.956419885E-2,2.095816954E-2
4.179179167E0,-6.595800868E-3,-4.367328768E-3,-1.686980188E-2,1.863245462E-2
4.189129167E0,1.789435283E-3,-7.057895358E-3,-9.984120727E-3,1.235712880E-2
4.199079167E0,-5.228516283E-3,-1.899349233E-3,-5.043808222E-3,7.508988707E-3
4.209029167E0,-3.871870888E-3,-1.536636853E-3,-2.648788691E-3,4.936468224E-3
4.218978167E0,2.436265242E-3,2.671796114E-3,-1.237855554E-2,1.289583343E-2
4.228928167E0,-5.902147503E-3,-9.750988127E-3,-1.746738732E-2,2.085729451E-2
4.238878167E0,9.575226763E-4,1.439563937E-3,-1.611901939E-2,1.621147680E-2
4.248828167E0,4.405369931E-3,1.485423467E-3,-6.987422705E-3,8.392725610E-3
4.258777167E0,2.544488981E-3,-2.913398040E-3,-6.388667822E-3,7.468426129E-3
4.268727167E0,-1.152609545E-3,-4.765480757E-5,-5.789912939E-3,5.903716760E-3
4.278677167E0,-8.881034357E-3,-7.806549096E-3,-6.089875102E-3,1.330043453E-2
4.288626167E0,-3.047399777E-3,-5.323924113E-3,-4.592403173E-3,7.662961586E-3
4.298576167E0,-2.861631908E-3,-9.748128473E-3,-9.382442236E-3,1.382914199E-2
4.308526167E0,-9.866920598E-3,-8.331165395E-3,-1.656750083E-2,2.100586877E-2
4.318476167E0,-8.625629805E-3,-1.345291517E-2,-2.584878623E-2,3.038983656E-2
4.328426167E0,2.264827620E-3,-1.245141504E-2,-1.237621665E-2,1.770135360E-2
4.338375167E0,1.267891056E-3,-1.071856071E-2,-1.027940512E-2,1.490507500E-2
4.348325167E0,-5.085748290E-3,-8.863689140E-3,6.472867727E-4,1.023957035E-2
4.358275167E0,-3.608467528E-3,-8.025867648E-3,-1.671660483E-2,1.889128017E-2
4.368225167E0,-9.937982541E-4,-9.585669525E-3,-1.521971762E-2,1.801423048E-2
4.378174167E0,-6.684966339E-4,-1.270348029E-2,-9.382442236E-3,1.580681883E-2
4.388124167E0,5.809208751E-4,-9.989862875E-3,-1.507119834E-2,1.809076695E-2
4.398074167E0,-3.639508020E-3,-7.071544952E-4,-1.087991416E-2,1.149428633E-2
4.408024167E0,-2.197502414E-4,-5.265506774E-3,-3.843374848E-3,6.522682115E-3
4.417973000E0,2.577333888E-3,-1.612779250E-2,-1.656691611E-2,2.326394313E-2
4.427923000E0,-3.436541115E-3,-9.244340595E-3,-8.783102632E-3,1.320645826E-2
4.437873000E0,1.653638268E-3,-4.251106221E-3,-3.992478848E-3,6.061873553E-3
4.447823000E0,-5.466817729E-3,-6.590339660E-3,-6.835979819E-3,1.095670083E-2
4.457772000E0,-7.127609700E-3,-1.395256432E-2,-1.117753744E-2,1.924614804E-2
4.467722000E0,-3.230271447E-3,-1.170053662E-2,-3.993063569E-3,1.277817544E-2
4.477672000E0,-4.134643846E-3,-5.058275512E-3,-8.334036469E-3,1.058950399E-2
4.487622000E0,2.319668108E-3,-1.516246744E-2,-1.267559409E-2,1.989854177E-2
4.497571000E0,-1.212570914E-3,-1.029814818E-2,-1.162835777E-2,1.558014405E-2
4.507521000E0,-6.902117310E-3,-1.021763248E-2,-4.592987895E-3,1.315806881E-2
4.517471000E0,9.671660140E-5,-3.887457373E-3,-5.940771103E-3,7.100312685E-3
4.527421000E0,-3.871144555E-3,-1.132964956E-2,-7.137696147E-3,1.393891766E-2
4.537370000E0,-1.890085051E-3,-1.711950540E-3,-1.058053672E-2,1.088351751E-2
4.547320000E0,6.483008992E-4,-2.710686950E-3,-6.240148544E-3,6.834293793E-3
4.557270000E0,-1.856509242E-3,-5.042001524E-3,-1.237738609E-2,1.349326100E-2
4.567220000E0,-6.122564692E-3,-7.971198466E-3,-9.084818959E-3,1.354842201E-2
4.577169000E0,-1.251961961E-2,-7.917120857E-3,1.094014049E-3,1.485323348E-2
4.587119000E0,-5.347228465E-3,-1.306809301E-2,-7.887309194E-3,1.617335938E-2
4.597069000E0,-4.877614821E-3,3.056956320E-3,-9.234507680E-3,1.088173885E-2
4.607019000E0,2.285713144E-3,-9.958858928E-3,-9.233338237E-3,1.377163355E-2
4.616968000E0,-2.559129861E-3,-1.519872475E-2,-1.851345420E-2,2.408938285E-2
4.626918000E0,-2.199891550E-3,-9.746111641E-3,-8.633998632E-3,1.320500463E-2
4.636868000E0,7.225696743E-4,-1.372585909E-2,-2.749477744E-2,3.073896715E-2
4.646818000E0,-3.125784444E-3,-1.732546215E-2,-1.581847250E-2,2.366783132E-2
4.656767000E0,-1.156287352E-2,-2.488292442E-2,-1.192598104E-2,2.991803797E-2
4.666717000E0,-5.657421885E-2,1.166220310E-2,1.085067809E-1,1.229242479E-1
4.676667000E0,-4.274531354E-1,1.779368753E-1,1.277904303E0,1.359197235E0
4.686617000E0,-9.282714318E-2,1.733795029E-2,2.759517413E-1,2.916622131E-1
4.696566000E0,1.917447462E-1,-7.374776074E-2,-7.622974116E-1,7.894948534E-1
4.706516000E0,3.742158449E-1,-1.717700363E-1,-1.330664315E0,1.392914198E0
4.716466000E0,6.151778112E-1,-2.475543913E-1,-1.734133304E0,1.856595064E0
4.726416000E0,4.121987365E-1,-6.549029995E-3,1.357167989E-1,4.340158265E-1
4.736366000E0,-1.123930889E0,-2.018425267E-2,2.394821895E0,2.645524515E0
4.746315000E0,-8.426182010E-1,-5.974558508E-1,-8.655656719E-1,1.347650867E0
4.756265000E0,-4.470631253E-1,-1.129501897E0,-5.485857725E-2,1.215997301E0
4.766215000E0,-2.400256444E-1,-4.923695449E-1,1.642658293E-1,5.718595469E-1
4.776165000E0,3.159386565E-1,5.746051513E-1,-9.965292692E-2,6.632639146E-1
4.786114000E0,1.266761356E-1,1.428078781E0,1.157333547E-1,1.438349769E0
4.796064000E0,6.929688028E-1,1.074467391E0,2.560846567E-2,1.278804805E0
4.806014000E0,6.530733966E-1,9.103290313E-1,8.802339971E-2,1.123811339E0
4.815964000E0,-4.434093464E-1,2.014679203E0,7.230181557E-1,2.185932157E0
4.825913000E0,-7.673471401E-1,5.353668259E-1,7.592475039E-1,1.204946490E0
4.835863000E0,-4.776314186E-1,-2.576098664E-1,1.144539839E-1,5.546118730E-1
4.845813000E0,-3.604901274E-1,1.382167029E0,-5.229457319E-1,1.521121647E0
4.855763000E0,-6.801715136E-1,2.258846503E0,-2.425717413E-2,2.359154345E0
4.865712000E0,-1.679509639E0,1.562522057E0,7.844636214E-1,2.424378473E0
4.875662000E0,-2.300457775E0,6.703433673E-1,3.030764485E0,3.863547537E0
4.885612000E0,-1.073917607E0,3.349624995E-1,4.170357580E0,4.319419086E0
4.895562000E0,-6.495129539E-1,1.701986701E-1,4.702518523E0,4.750212114E0
4.905511000E0,3.156995419E-1,4.384298576E-1,1.924978237E0,1.999356935E0
4.915461000E0,6.657429242E-1,6.453867931E-1,2.092705618E0,2.288919954E0
4.925411000E0,-3.970999466E-1,-5.983297902E-1,1.749440145E0,1.891091676E0
4.935361000E0,-1.187191403E0,-5.344597766E-1,1.314555236E0,1.850169222E0
4.945310000E0,-6.289891539E-1,1.117695418E0,1.180972086E0,1.743434963E0
4.955260000E0,-1.145966560E0,2.289636333E0,7.236063856E-1,2.660691657E0
4.965210000E0,-7.323295543E-1,5.215619883E-1,-5.935976386E-2,9.010311122E-1
4.975160000E0,-3.031372011E0,-7.574049878E0,-2.681951174E0,8.587683618E0
4.985110000E0,7.949229746E-1,-6.111542544E0,-1.372301168E0,6.313957974E0
4.995059000E0,1.399476687E0,6.157003330E-1,-2.826333547E-1,1.554832310E0
5.005009000E0,-1.012678621E0,3.846304303E-1,3.323218238E-1,1.133091502E0
5.014959000E0,-7.401352217E-1,3.516940878E-1,9.151822203E-1,1.228432894E0
5.024909000E0,3.135538696E-1,-7.026824167E-1,1.245351684E0,1.463891876E0
5.034858000E0,1.817188617E0,-3.560952286E0,6.967641574E-1,4.058082792E0
5.044808000E0,2.389859948E0,-3.791804599E-1,-1.156813145E-1,2.422517401E0
5.054758000E0,1.337406154E0,2.916713082E0,1.200933310E0,3.426092707E0
5.064708000E0,-6.217712778E-1,8.458274453E-1,4.008056415E0,4.143252323E0
5.074658000E0,-3.098491030E0,-5.830708232E-1,5.291914937E0,6.159949834E0
5.084607000E0,-4.077569284E0,-6.294043793E-1,3.358622544E0,5.320062644E0
5.094557000E0,-1.225261967E0,-3.422881398E0,8.689558876E-1,3.737976496E0
5.104507000E0,3.680770213E0,-4.078325329E0,-2.448465421E0,6.014631308E0
5.114457000E0,5.082043165E0,-2.187228490E0,-1.107852654E0,5.642558702E0
5.124406000E0,4.956790543E0,-1.084815794E0,-7.306511110E-1,5.126446024E0
5.134356000E0,3.767703984E0,-2.745981109E-1,-9.320701486E-1,3.890983448E0
5.144306000E0,1.128081973E0,1.405922658E0,-1.493271874E0,2.340736710E0
5.154256000E0,-2.144567497E0,2.449686612E0,-1.614126220E0,3.633942446E0
5.164205000E0,-5.583664101E0,2.084850176E0,1.500342911E-1,5.962081461E0
5.174155000E0,-5.408956314E0,4.364864624E-1,3.525258250E0,6.471072135E0
5.184105000E0,-1.529970461E0,-1.125225609E0,4.431708823E0,4.821512769E0
5.194055000E0,1.792646391E0,-1.707111274E0,2.285314656E0,3.369046314E0
5.204005000E0,3.486617803E0,-1.886958472E0,4.929173559E-1,3.995007321E0
5.213954000E0,2.869279299E0,-1.118350745E0,-7.272287357E-1,3.164227191E0
5.223904000E0,1.230582787E0,-1.252011663E-1,-3.432531935E-1,1.283679120E0
5.233854000E0,-6.573059767E-1,2.500722572E-1,-2.922186953E-1,7.615635540E-1
5.243804000E0,-1.536738321E0,5.173572555E-1,-5.226685739E-1,1.703644809E0
5.253753000E0,-8.482988441E-1,6.464237237E-1,-5.141140974E-1,1.183971226E0
5.263703000E0,6.820408684E-1,6.005967557E-2,-1.530742586E-1,7.015829526E-1
5.273653000E0,1.155440218E0,-3.707090870E-1,-1.048503415E0,1.603691597E0
5.283603000E0,7.901658261E-1,-7.026312536E-1,9.476898158E-1,1.419918553E0
5.293553000E0,9.697835201E-1,-1.530370410E0,1.078909521E0,2.108686658E0
5.303502000E0,1.114583969E0,-1.181462082E0,3.140925443E-1,1.654328928E0
5.313452000E0,9.896348172E-1,-8.107547495E-1,1.120583797E-1,1.284234175E0
5.323402000E0,1.357145185E0,-1.183624967E0,-2.332734990E-1,1.815826986E0
5.333352000E0,1.696669609E0,-2.579091634E0,-3.292742550E-1,3.104645383E0
5.343301000E0,2.106391611E0,-3.497226991E0,-6.781705964E-1,4.138526018E0
5.353251000E0,3.257962142E0,-3.396221018E0,-2.982525541E0,5.571722635E0
5.363201000E0,4.380605328E0,-2.309161648E0,-5.159995320E0,7.151746798E0
5.373151000E0,4.860154780E0,-7.013974911E-1,-5.194859928E0,7.148400702E0
5.383101000E0,4.740606701E0,1.447188798E-1,-4.949542335E0,6.855090428E0
5.393050000E0,1.307602896E0,1.624175829E0,-3.220723565E0,3.836773741E0
5.403000000E0,-3.639205281E0,4.286087426E0,-1.387446041E0,5.791318245E0
5.412950000E0,-4.665857066E0,5.876631240E0,-2.086326891E0,7.788310265E0
5.422900375E0,-4.188089261E0,6.077407084E0,-4.673418100E0,8.735891784E0
5.432850375E0,-2.134186058E0,3.886967010E0,-6.767532313E-1,4.485672481E0
5.442799375E0,3.328898808E-1,1.244387771E0,3.111197029E0,3.367322906E0
5.452749375E0,1.221505569E0,1.180671246E-1,1.468245791E0,1.913572942E0
5.462699375E0,2.005512523E0,-1.216606772E-1,-9.516056961E-1,2.223158834E0
5.472649375E0,2.422037176E0,8.425384596E-2,-1.952448456E0,3.112140383E0
5.482599375E0,2.071407135E0,7.719397625E-1,-1.897446622E0,2.913232260E0
5.492548375E0,1.856569615E0,1.255870533E0,-1.136442615E0,2.513078460E0
5.502498375E0,1.718354301E0,1.206273719E0,-1.383540686E0,2.514363262E0
5.512448375E0,1.204396909E0,1.299701992E0,-2.285131638E0,2.891647244E0
5.522398375E0,2.080608898E-1,1.619258321E0,-2.421577000E0,2.920500301E0
5.532347375E0,-5.320820063E-1,2.152495152E0,-1.662141216E-1,2.223504841E0
5.542297375E0,-1.466881928E0,2.490624138E0,2.775522997E0,4.007303220E0
5.552247375E0,-1.517875788E0,1.479150263E0,5.254688054E0,5.666002026E0
5.562197375E0,-4.475435472E-1,-3.313419036E-1,5.581317029E0,5.609026873E0
5.572147375E0,6.541347393E-1,-5.127221677E-1,4.646758890E0,4.720502565E0
5.582096375E0,1.780823614E0,-1.028521725E0,2.809071397E0,3.481389348E0
5.592046375E0,2.676576706E0,-1.008198265E0,1.887498170E0,3.426831765E0
5.601996375E0,2.966085801E0,-7.900481509E-1,1.916409727E0,3.618627821E0
5.611946375E0,2.143383729E0,-2.009946905E0,2.183711098E0,3.660952680E0
5.621896375E0,2.463461190E-1,-3.887617806E0,3.759956716E0,5.414012663E0
5.631845375E0,-2.116040540E0,-5.354297712E0,4.086182817E0,7.059959035E0
5.641795375E0,-5.283225390E0,-7.384352753E0,8.217238337E0,1.224598473E1
5.651745375E0,-5.923980238E0,-5.746890880E0,4.758499766E0,9.526994105E0
5.661695375E0,-3.138480138E0,-1.866918894E0,-3.336704257E0,4.946618949E0
5.671645375E0,-8.409436315E-1,-2.007447367E0,-5.396048586E0,5.818450950E0
5.681594375E0,7.607275072E-2,-1.813020137E0,-2.796466554E0,3.333624794E0
5.691544375E0,-6.518702589E-2,-1.089767801E0,6.909537792E-1,1.291998581E0
5.701494375E0,-1.127296181E0,-6.247896105E-1,2.569001094E0,2.874182555E0
5.711444375E0,-1.781263909E0,-7.753963441E-2,3.474447700E0,3.905214505E0
5.721394375E0,-2.206514947E0,4.406064105E-1,4.253647074E0,4.812105116E0
5.731343375E0,-2.540201218E0,7.379177383E-1,4.365147629E0,5.104082546E0
5.741293375E0,-2.807423651E0,7.073669136E-1,4.155254806E0,5.064399077E0
5.751243375E0,-4.007753821E0,6.187611312E-2,4.602283798E0,6.103026750E0
5.761193375E0,-7.905499882E0,1.058451283E0,4.470400434E0,9.143398030E0
5.771143375E0,-7.889690765E0,-1.450150412E-1,4.268067477E0,8.971323743E0
5.781092375E0,-1.875368559E0,-3.231383039E0,6.854404981E0,7.806517227E0
5.791042375E0,2.120225685E0,-1.793522012E0,5.931458827E0,6.549372640E0
5.800992375E0,3.646446180E0,-3.720283942E0,3.069268400E0,6.046279093E0
5.810942375E0,6.183333343E-1,-1.207453541E0,3.093992767E0,3.378323757E0
5.820892375E0,-1.480337394E0,-4.098529798E-1,3.606556767E0,3.920029334E0
5.830841375E0,-1.176502912E0,-1.148211890E0,2.447517003E0,2.948370589E0
5.840791375E0,-6.153286694E-1,-6.163240117E-1,2.648179411E0,2.787712117E0
5.850741375E0,-4.208257916E-1,5.568397021E-1,2.081115852E0,2.195041683E0
5.860691375E0,-1.600984603E0,1.186190141E0,-6.088764131E-2,1.993465839E0
5.870641375E0,-2.474460973E0,1.078018990E0,-2.101962930E0,3.421013038E0
5.880590375E0,-1.802743217E0,6.415430528E-1,-4.594309366E0,4.976860370E0
5.890540375E0,5.162503776E-1,1.548424566E-1,-6.277926820E0,6.301020219E0
5.900490375E0,3.090190322E0,1.794837928E-1,-6.098158852E0,6.838788785E0
5.910440375E0,3.755274558E0,7.836064196E-1,-5.431934702E0,6.649965461E0
5.920390375E0,3.336541704E0,5.013157117E-1,-4.044108008E0,5.266748291E0
5.930340375E0,2.640286254E0,-2.418700755E-2,-2.499960680E0,3.636138050E0
5.940289375E0,1.308316256E0,1.293883574E-1,-1.633377593E0,2.096748705E0
5.950239375E0,4.179301773E-1,2.362889081E-1,-1.177789446E0,1.271882880E0
5.960189375E0,3.169190884E-3,6.680326939E-2,-6.667264259E-1,6.700722704E-1
5.970139375E0,-4.460299954E-2,-5.295682883E-1,-2.912983435E-1,6.060418505E-1
5.980088375E0,6.936946616E-2,-7.455656040E-1,2.286857736E-1,7.829287169E-1
5.990038375E0,5.132881781E-1,-1.758310372E0,1.217525370E0,2.199429049E0
5.999988375E0,8.648359394E-1,-1.911595715E0,2.490582916E0,3.256553798E0
6.009938375E0,1.344432900E0,-2.079055878E0,2.781985924E0,3.724166866E0
6.019888375E0,1.261600804E0,-2.253348513E0,2.622421256E0,3.680531124E0
6.029838375E0,5.520962946E-1,-1.762527968E0,1.368920308E0,2.298968892E0
6.039787375E0,-1.590276012E-1,-1.752018768E0,4.311736822E-3,1.759226572E0
6.049737375E0,-4.217814459E-1,-1.910217526E0,-3.772489053E-1,1.992271899E0
6.059687375E0,-5.637838554E-1,-2.107694371E0,-3.502119648E-1,2.209723109E0
6.069637375E0,-1.165164430E-1,-2.670810474E0,5.801806176E-1,2.735582976E0
6.079587375E0,2.046643884E-1,-2.524278665E0,1.592143613E0,2.991453087E0
6.089536375E0,-1.187535878E-1,-2.999870136E0,2.958815081E0,4.215199869E0
6.099486375E0,-3.663792238E-1,-2.969593254E0,3.873697339E0,4.894716427E0
6.109436375E0,-7.333148101E-1,-2.970790179E0,3.965226730E0,5.008629345E0
6.119386375E0,-1.023109834E0,-2.917201617E0,3.757223727E0,4.865547157E0
6.129336375E0,-1.093009058E0,-3.308725330E0,3.557790989E0,4.979980806E0
6.139285375E0,-1.391065175E0,-3.811681770E0,3.478002223E0,5.344200567E0
6.149235375E0,-1.802235533E0,-3.720865155E0,3.471137007E0,5.398303673E0
6.159185375E0,-1.706397329E0,-4.120280855E0,3.614110200E0,5.740235075E0
6.169135375E0,-1.499552076E0,-4.247650754E0,3.865481709E0,5.935751191E0
6.179085375E0,-1.271152523E0,-4.058303878E0,3.664147164E0,5.613522382E0
6.189035375E0,-9.277896944E-1,-4.164226189E0,3.467992374E0,5.498049161E0
6.198984375E0,-7.668567780E-1,-4.502110469E0,3.179774344E0,5.564892890E0
6.208934375E0,-5.642396459E-1,-4.810408423E0,3.245045643E0,5.829984288E0
6.218884375E0,-3.982439178E-1,-5.050930130E0,3.141918300E0,5.961723241E0
6.228834375E0,-2.924765575E-1,-5.682365686E0,3.065652482E0,6.463207212E0
6.238784375E0,-7.560131165E-1,-5.503591161E0,2.978265259E0,6.303263873E0
6.248733375E0,-1.308190834E0,-5.734532205E0,2.947187308E0,6.578916013E0
6.258683375E0,-2.154539047E0,-5.647547856E0,2.545021663E0,6.558503682E0
6.268633375E0,-2.417775725E0,-5.828947197E0,2.859506848E0,6.928134257E0
6.278583375E0,-1.884761380E0,-6.745083683E0,2.940334079E0,7.595659540E0
6.288533375E0,-1.303045869E0,-6.838516926E0,2.407729916E0,7.366166278E0
6.298483375E0,-1.034192647E0,-6.467342108E0,1.880116645E0,6.814022819E0
6.308432375E0,-9.621540731E-1,-6.394677590E0,1.395788264E0,6.615577588E0
6.318382375E0,-6.388036323E-1,-6.775740049E0,1.059059393E-1,6.806609976E0
6.328332375E0,-9.041301057E-1,-5.944223299E0,-1.231664522E0,6.137445672E0
6.338282375E0,-8.276444319E-1,-5.713276407E0,-2.517633305E0,6.298015566E0
6.348232375E0,-1.517991562E0,-5.704785665E0,-4.097003675E0,7.185702261E0
6.358181375E0,-2.065785037E0,-4.532744617E0,-5.943692957E0,7.755045296E0
6.368131375E0,-1.461991024E0,-3.422376491E0,-6.058110103E0,7.109906935E0
6.378081375E0,-3.312704945E-1,-3.143138322E0,-6.021959108E0,6.800959502E0
6.388031375E0,3.367136675E-1,-2.496385400E0,-6.011986097E0,6.518381163E0
6.397981375E0,5.926498049E-1,-2.082399316E0,-6.332194244E0,6.692107638E0
6.407930375E0,5.408440590E-1,-2.551598026E0,-7.175275617E0,7.634641116E0
6.417883750E0,5.386115921E-1,-2.723459096E0,-6.873527130E0,7.413009315E0
6.427833750E0,6.459769964E-1,-2.930821536E0,-5.301711947E0,6.092220509E0
6.437783750E0,8.892077190E-1,-3.251642179E0,-4.068041831E0,5.283259559E0
6.447733750E0,7.534078896E-1,-2.622585855E0,-3.200007464E0,4.205428372E0
6.457683750E0,8.390848017E-1,-2.491285166E0,-3.351527533E0,4.259495497E0
6.467632750E0,8.738599473E-1,-1.955058946E0,-3.862216916E0,4.416175517E0
6.477582750E0,1.180803101E0,-1.562276912E0,-3.812479915E0,4.286024757E0
6.487532750E0,1.226410214E0,-1.390095122E0,-4.189280924E0,4.581104792E0
6.497482750E0,1.327992722E0,-1.056262670E0,-3.985007860E0,4.331228826E0
6.507432750E0,1.235724828E0,-1.038498829E0,-3.808908436E0,4.136819931E0
6.517382750E0,1.391948982E0,-1.445620574E0,-3.386250054E0,3.936245704E0
6.527331750E0,1.260108302E0,-1.219221939E0,-2.773559502E0,3.281311838E0
6.537281750E0,1.028315903E0,-1.105148609E0,-2.285467853E0,2.739005358E0
6.547231750E0,7.703385025E-1,-1.079710005E0,-1.392041368E0,1.922751745E0
6.557181750E0,5.781779462E-1,-9.954919732E-1,-4.982242888E-1,1.254400832E0
6.567131750E0,3.756543696E-1,-6.916805881E-1,-6.714416206E-2,7.899661891E-1
6.577080750E0,2.511817664E-1,-4.577902079E-1,-1.837896824E-1,5.535727608E-1
6.587030750E0,1.710240412E-1,-2.660114747E-1,-6.145014346E-1,6.911029883E-1
6.596980750E0,1.293825102E-1,-1.100001597E-1,-8.151620883E-1,8.326638573E-1
6.606930750E0,3.873254120E-2,7.536154658E-2,-9.100957274E-1,9.140316218E-1
6.616880750E0,3.373428279E-1,-3.687938315E-1,-7.154202837E-1,8.727171684E-1
6.626830750E0,4.419670576E-1,-4.245291987E-1,-6.453495902E-1,8.899640521E-1
6.636779750E0,5.813026983E-1,-2.876941198E-1,-7.070757222E-1,9.594982077E-1
6.646729750E0,7.719078952E-1,-2.812820631E-1,-3.327480859E-1,8.863874358E-1
6.656679750E0,7.856108451E-1,-2.014231306E-1,2.175462431E-1,8.396916371E-1
6.666629750E0,6.920173877E-1,-1.575304216E-1,5.248834991E-1,8.827267903E-1
6.676579750E0,5.561643487E-1,-1.048014003E-1,6.341018862E-1,8.499337141E-1
6.686529750E0,3.789405048E-1,3.415154010E-2,3.405126035E-1,5.105987339E-1
6.696478750E0,2.662652439E-1,1.759076357E-1,-1.057895797E-1,3.362024860E-1
6.706428750E0,1.081191105E-1,4.349559537E-1,-5.150701171E-1,6.827691039E-1
6.716378750E0,5.716822743E-2,2.781061479E-1,-7.054145283E-1,7.604083721E-1
6.726328750E0,-3.858636081E-2,-1.683910400E-2,-6.204556543E-1,6.218823696E-1
6.736278750E0,-1.618678862E-1,9.522980064E-2,-7.704975468E-1,7.930551035E-1
6.746227750E0,-4.168655455E-2,-1.503216818E-1,-7.060928053E-1,7.231192339E-1
6.756177750E0,7.844624519E-2,-3.632717210E-1,-8.663234711E-3,3.717461611E-1
6.766127750E0,1.700259215E-1,-3.559053987E-1,5.832732099E-1,7.041200922E-1
6.776077750E0,2.828900474E-1,-2.826140589E-1,8.099644983E-1,9.032939575E-1
6.786027750E0,3.617806810E-1,-1.674499306E-1,6.271893078E-1,7.431629486E-1
6.795977750E0,3.726243424E-1,3.528706938E-2,2.131912369E-1,4.307488611E-1
6.805926750E0,3.264962429E-1,1.872199515E-1,-2.380530131E-1,4.453317234E-1
6.815876750E0,3.104041207E-1,1.691263273E-1,-4.536334223E-1,5.750980043E-1
6.825826750E0,2.993043512E-1,6.590893775E-2,-4.869444251E-1,5.753624561E-1
6.835776750E0,3.580817324E-1,-8.209900081E-2,-3.193643939E-1,4.867816647E-1
6.845726750E0,3.403529745E-1,-1.960433999E-1,-1.128939468E-1,4.086786086E-1
6.855676750E0,1.783529413E-1,-3.262032974E-1,-6.220794261E-2,3.769458728E-1
6.865625750E0,3.403488815E-2,-3.591643444E-1,1.840224016E-1,4.049958570E-1
6.875575750E0,-1.348718762E-2,-2.851491192E-1,5.886497247E-1,6.542174125E-1
6.885525750E0,-9.895652354E-2,-1.259548724E-1,5.471783477E-1,5.701413576E-1
6.895475750E0,-1.509464568E-1,5.500124931E-2,8.128506839E-2,1.800478619E-1
6.905425750E0,-2.808979011E-1,3.461665687E-1,-4.917911822E-1,6.637721680E-1
6.915374750E0,-1.209028780E-1,1.695224762E-2,-7.842490286E-1,7.936947924E-1
6.925324750E0,-1.752363753E-1,2.439771196E-1,-5.207810926E-1,6.012034336E-1
6.935274750E0,-5.654199064E-2,1.140990579E-1,-4.204551512E-1,4.393155197E-1
6.945224750E0,3.584694028E-2,-4.541123092E-2,-7.018822253E-2,9.095916448E-2
6.955174750E0,3.557329059E-2,-1.177980065E-1,1.931253469E-1,2.289961331E-1
6.965124750E0,-5.330321789E-2,-9.655974984E-2,2.162428987E-1,2.427468014E-1
6.975073750E0,-1.878453112E-1,-9.128965437E-3,-6.669334173E-3,1.881852251E-1
6.985023750E0,-3.328176677E-1,9.166913867E-2,-3.340028983E-1,4.803423436E-1
6.994973750E0,-3.518895310E-1,1.073320752E-1,-3.240380734E-1,4.902520672E-1
7.004923750E0,-2.731994569E-1,5.568391174E-2,-7.569863856E-2,2.889098911E-1
7.014873750E0,-9.610951424E-2,-1.021537811E-2,1.684015650E-1,1.941661138E-1
7.024823750E0,4.967151225E-2,-5.083949357E-2,2.554619282E-1,2.651654390E-1
7.034772750E0,9.313737452E-2,-4.687011123E-2,2.046531326E-1,2.296830044E-1
7.044722750E0,1.566083157E-1,-8.978107274E-2,1.544460154E-1,2.375718359E-1
7.054672750E0,1.834172148E-1,-1.763976324E-1,9.025645137E-2,2.700078265E-1
7.064622750E0,1.353028160E-1,-2.248976550E-1,4.098371923E-2,2.656416241E-1
7.074572750E0,6.870712280E-2,-2.283711934E-1,-3.989964545E-2,2.417975443E-1
7.084522750E0,-4.852662742E-2,-1.734322169E-1,-1.950859183E-1,2.655034519E-1
7.094471750E0,-1.340433258E-1,-1.101267520E-1,-1.679981071E-1,2.414930199E-1
7.104421750E0,-1.864653683E-1,-2.473342985E-2,-1.432889432E-1,2.364588703E-1
7.114371750E0,-2.212615639E-1,4.410408586E-2,-1.828628987E-1,2.904146859E-1
7.124321750E0,-2.314474136E-1,3.684330583E-3,-2.835806036E-1,3.660593371E-1
7.134271750E0,-2.082655424E-1,-1.086743036E-1,-3.435017002E-1,4.161466790E-1
7.144221750E0,-1.775986505E-1,-2.283983830E-1,-3.229738802E-1,4.336118417E-1
7.154170750E0,-1.680834764E-1,-3.063894224E-1,-2.835759258E-1,4.500464853E-1
7.164120750E0,-1.756269693E-1,-3.261515495E-1,-2.219831103E-1,4.318520196E-1
7.174070750E0,-1.827915627E-1,-2.968917900E-1,-1.983960271E-1,4.011464495E-1
7.184020750E0,-1.661240745E-1,-1.916345993E-1,-1.749983937E-1,3.081322209E-1
7.193970750E0,-1.422224110E-1,-1.232484886E-1,-2.104945010E-1,2.823567585E-1
7.203920750E0,-6.215707183E-2,-5.923931122E-2,-2.576441091E-1,2.715755595E-1
7.213869750E0,2.642707586E-2,2.253838509E-2,-3.624835163E-1,3.641437474E-1
7.223819750E0,1.213279706E-1,7.064167410E-2,-2.548929942E-1,2.910002767E-1
7.233769750E0,1.755076861E-1,8.481210887E-2,-1.365237147E-1,2.379806008E-1
7.243719750E0,2.194079965E-1,3.822032511E-3,-3.217898190E-2,2.217881055E-1
7.253669750E0,2.130491495E-1,-7.380706429E-2,-2.802570462E-3,2.254889737E-1
7.263619750E0,1.468270934E-1,-1.462865183E-1,9.134227931E-2,2.264980193E-1
7.273568750E0,4.209293604E-2,-1.949906087E-1,1.693207473E-1,2.616537181E-1
7.283518750E0,-7.267796695E-2,-2.207712749E-1,2.383237392E-1,3.328967518E-1
7.293468750E0,-1.312167817E-1,-2.040172479E-1,3.084710312E-1,3.924222959E-1
7.303418750E0,-7.419824302E-2,-1.115885559E-1,2.721194762E-1,3.033255584E-1
7.313368750E0,-2.070557535E-2,-6.377441168E-2,6.493976176E-2,9.334382193E-2
7.323318750E0,1.011568308E-2,-3.237778723E-2,-1.785546702E-1,1.817482281E-1
7.333267750E0,2.733748734E-2,-4.718849212E-2,-2.792302752E-1,2.845059552E-1
7.343217750E0,4.284839630E-2,-1.020467770E-1,-2.000911349E-1,2.286613042E-1
7.353167750E0,4.711160123E-2,-1.817264923E-1,-1.294152546E-1,2.280182649E-1
7.363117750E0,1.055130064E-2,-2.359272578E-1,-1.284873015E-1,2.688530966E-1
7.373067750E0,7.759255171E-4,-2.665362623E-1,-1.450653273E-1,3.034569663E-1
7.383017750E0,-6.822940528E-2,-2.047285616E-1,-3.354997855E-1,3.989099420E-1
7.392966750E0,-4.143629372E-2,-1.638623714E-1,-3.173020810E-1,3.595114099E-1
7.402916750E0,-3.176266015E-2,-1.303069550E-1,-3.151082057E-1,3.424645243E-1
7.412866750E0,-2.192179620E-2,-1.530570093E-1,-3.027126932E-1,3.399146773E-1
7.422816750E0,-2.987459421E-2,-2.220471373E-1,-2.999194783E-1,3.743649503E-1
7.432766750E0,-3.336713612E-2,-2.270178553E-1,-3.200280529E-1,3.937872866E-1
7.442715750E0,-5.767927408E-2,-2.086415184E-1,-2.213866943E-1,3.096292142E-1
7.452665750E0,-4.909790039E-2,-1.720449650E-1,-5.677295566E-2,1.877052005E-1
7.462615750E0,1.501272619E-2,-1.547816455E-1,1.141627926E-1,1.929141855E-1
7.472565750E0,5.432121813E-2,-1.136277723E-1,1.071952504E-1,1.653870826E-1
7.482515750E0,1.102890122E-1,-1.436915240E-1,3.729529560E-2,1.849374471E-1
7.492465750E0,1.380936921E-1,-1.593930522E-1,-1.490274006E-1,2.582347362E-1
7.502415750E0,1.215308690E-1,-1.600368306E-1,-2.970636982E-1,3.586479890E-1
7.512364750E0,7.417426944E-2,-1.362152740E-1,-3.567643547E-1,3.890208579E-1
7.522314750E0,1.837136686E-2,-9.737251282E-2,-2.522903985E-1,2.710523170E-1
7.532264750E0,4.424821973E-2,-7.803694010E-3,-1.578064102E-1,1.640782304E-1
7.542214750E0,9.702635765E-2,5.850343913E-2,-2.986167186E-1,3.193880260E-1
7.552164750E0,2.087187016E-1,1.023607725E-1,-6.533351326E-1,6.934608999E-1
7.562114750E0,4.039776975E-1,1.264811218E-1,-1.079029389E0,1.159094421E0
7.572063750E0,5.650643957E-1,1.251476642E-1,-1.518238900E0,1.624810471E0
7.582013750E0,6.790558648E-1,6.649395168E-2,-1.994338494E0,2.107824552E0
7.591963750E0,6.404209721E-1,1.941012472E-2,-2.523641903E0,2.603705865E0
7.601913750E0,5.397418588E-1,-5.619525075E-2,-2.828570691E0,2.880154742E0
7.611863750E0,6.113111937E-1,-1.334510028E-2,-2.826389680E0,2.891774211E0
7.621813750E0,7.410766965E-1,1.122788197E-1,-2.907954245E0,3.002998351E0
7.631762750E0,9.527938503E-1,1.671125463E-1,-3.021826431E0,3.172881609E0
7.641712750E0,1.199259253E0,-2.103009582E-2,-3.287960113E0,3.499906673E0
7.651662750E0,1.403177975E0,-3.257404903E-1,-3.446479298E0,3.735402903E0
7.661612750E0,1.498743113E0,-5.952076694E-1,-3.542310485E0,3.892103116E0
7.671562750E0,1.508284600E0,-6.712325826E-1,-3.648173155E0,4.004328032E0
7.681512750E0,1.484786394E0,-6.087489438E-1,-3.782468496E0,4.108799561E0
7.691461750E0,1.361120122E0,-4.580597645E-1,-3.957214290E0,4.209751973E0
7.701411750E0,1.172787738E0,-3.913140902E-1,-4.447204530E0,4.615862425E0
7.711361750E0,9.911621100E-1,-5.854056895E-1,-5.493680715E0,5.612987613E0
7.721311750E0,8.887989986E-1,-7.508894938E-1,-6.371769953E0,6.477132933E0
7.731261750E0,8.878909260E-1,-1.299206879E0,-6.374729814E0,6.566084755E0
7.741211750E0,9.954218066E-1,-2.297787352E0,-6.074866469E0,6.570745308E0
7.751160750E0,9.325601453E-1,-3.169328878E0,-5.185684478E0,6.148628909E0
7.761110750E0,9.096215183E-1,-3.474290995E0,-4.096553439E0,5.447922476E0
7.771060750E0,5.227820098E-1,-3.327770880E0,-4.010388284E0,5.237420573E0
7.781010750E0,7.214236200E-2,-3.213492898E0,-4.529142732E0,5.553816257E0
7.790960750E0,6.975289732E-2,-3.754059799E0,-4.401984210E0,5.785783908E0
7.800910750E0,4.686952651E-2,-4.140845513E0,-4.514156318E0,6.125879984E0
7.810859750E0,3.557767600E-2,-4.951575996E0,-4.959258653E0,7.008110801E0
7.820809750E0,5.899460524E-1,-5.880392754E0,-5.102960994E0,7.808153828E0
7.830759750E0,1.193607334E0,-6.651094369E0,-4.665484014E0,8.211485606E0
7.840709750E0,1.756160058E0,-7.243835975E0,-4.190566142E0,8.550912371E0
7.850659750E0,1.455073476E0,-7.298779922E0,-4.224995717E0,8.558038091E0
7.860609750E0,1.228152099E-1,-7.158695253E0,-4.463274432E0,8.436991167E0
7.870559750E0,-1.287504554E0,-6.921571362E0,-2.702496536E0,7.541174021E0
7.880508750E0,-1.414715408E0,-6.939855021E0,-1.986795586E0,7.355974721E0
7.890458750E0,-1.067883134E0,-7.525791053E0,-1.301806844E0,7.711848443E0
7.900408750E0,-8.223298976E-1,-7.273121170E0,-1.875386247E-1,7.321863748E0
7.910358750E0,-7.100227189E-1,-6.846433471E0,2.589141244E-1,6.888020039E0
7.920308750E0,-7.092476705E-1,-6.666770169E0,7.237704000E-1,6.743344892E0
7.930258750E0,-9.397364330E-1,-6.474618968E0,1.144513819E0,6.641815055E0
7.940207750E0,-9.130658206E-1,-6.387025924E0,1.797138222E0,6.697573824E0
7.950157750E0,-6.808743489E-1,-5.978269297E0,2.188460791E0,6.402550609E0
7.960107750E0,-6.777738628E-1,-4.731161694E0,3.222941998E0,5.764600897E0
7.970057750E0,-5.394018432E-1,-3.879201323E0,4.521347809E0,5.981784288E0
7.980007750E0,-3.188714737E-1,-3.756803897E0,5.892107651E0,6.995154545E0
7.989957750E0,-4.822344929E-1,-2.882765610E0,6.942421364E0,7.532602608E0
7.999906750E0,-4.608617502E-1,-2.581289018E0,7.144311687E0,7.610298025E0
8.009856750E0,-6.083092332E-1,-2.255504966E0,6.782889440E0,7.173906323E0
8.019806750E0,-6.022588268E-1,-2.217850651E0,5.742145865E0,6.184966964E0
8.029756750E0,-5.291171756E-1,-2.195169302E0,4.571761917E0,5.098994046E0
8.039706750E0,-5.872461006E-1,-1.995250660E0,3.451168765E0,4.029447732E0
8.049656750E0,-5.158241156E-1,-1.885912989E0,2.684764854E0,3.321250464E0
8.059605750E0,-4.041753334E-1,-1.705616434E0,2.142104065E0,2.767868304E0
8.069555750E0,-1.906449580E-1,-1.585881829E0,1.837716145E0,2.434864946E0
8.079505750E0,5.092106223E-2,-1.429860574E0,1.715132192E0,2.233556055E0
8.089455750E0,2.100813952E-1,-1.288164412E0,1.775764895E0,2.203824564E0
8.099405750E0,3.399702743E-1,-1.133788564E0,1.946658543E0,2.278274737E0
8.109355750E0,3.525157678E-1,-9.259919679E-1,2.032914914E0,2.261519741E0
8.119305750E0,3.644166058E-1,-7.420596135E-1,1.966470664E0,2.133180444E0
8.129254750E0,2.854654536E-1,-6.024544162E-1,1.765619391E0,1.887287388E0
8.139204750E0,1.460958990E-1,-4.980108654E-1,1.599982975E0,1.682053612E0
8.149154750E0,3.718390614E-2,-4.320349771E-1,1.251895888E0,1.324869872E0
8.159104750E0,-1.304367632E-2,-3.607416308E-1,5.829837728E-1,6.856928912E-1
8.169054750E0,3.798936009E-2,-3.441799772E-1,1.915489376E-1,3.957196528E-1
8.179004750E0,-6.973301679E-2,-2.081848508E-1,9.484183788E-3,2.197579930E-1
8.188953750E0,-1.189578018E-1,-1.157052881E-1,-2.427354634E-2,1.677136766E-1
8.198903750E0,-7.598281324E-2,6.488070488E-3,2.104225802E-1,2.238149799E-1
8.208853750E0,-8.673087269E-2,5.606485784E-2,5.046790302E-1,5.151372983E-1
8.218803750E0,-1.444072232E-1,1.216384578E-1,7.432805121E-1,7.668867453E-1
8.228753750E0,-1.679288176E-1,1.624122620E-1,7.574459767E-1,7.926551825E-1
8.238703750E0,4.431020021E-3,1.853801250E-1,6.494052190E-1,6.753610613E-1
8.248652750E0,7.931806505E-2,1.908887869E-1,4.621165627E-1,5.062426315E-1
8.258602750E0,4.269227564E-2,1.899058700E-1,2.419718170E-1,3.105434431E-1
8.268552750E0,-5.545148492E-2,2.258218074E-1,7.314165115E-2,2.437622961E-1
8.278502750E0,-3.055988789E-2,2.516647464E-1,7.262768090E-2,2.637116443E-1
8.288452750E0,-3.043154150E-2,1.839797169E-1,-4.592403173E-3,1.865360692E-1
8.298402750E0,-2.260884404E-2,1.112233973E-1,7.966246605E-2,1.386647483E-1
8.308352750E0,3.711257011E-2,2.525003135E-2,8.002148509E-2,9.175153960E-2
8.318301750E0,8.754831344E-2,-8.540735543E-2,4.924057245E-2,1.318474783E-1
8.328251750E0,6.775461137E-2,-1.221220225E-1,1.557084292E-1,2.091640282E-1
8.338201750E0,1.121981281E-1,-1.406021476E-1,2.369344407E-1,2.974816180E-1
8.348151750E0,1.418283087E-1,-1.205163771E-1,3.050188351E-1,3.573177242E-1
8.358101750E0,1.298274833E-1,-1.121928656E-1,2.978068793E-1,3.437024176E-1
8.368051750E0,1.677595407E-1,-1.179816091E-1,2.571488500E-1,3.289201341E-1
8.378000750E0,1.454927588E-1,-1.434497416E-2,3.983941913E-2,1.515292066E-1
8.387950750E0,1.235092744E-1,8.944661200E-2,-5.890309632E-2,1.634772523E-1
8.397900750E0,7.243764639E-2,1.000090224E-1,-1.345853627E-1,1.826533247E-1
8.407850750E0,4.561793000E-2,1.091628385E-1,-2.948540354E-1,3.177049307E-1
8.417798167E0,6.748827070E-2,9.484826982E-2,-3.959471315E-1,4.127044850E-1
8.427748167E0,1.053419754E-1,2.847301662E-2,-3.391385078E-1,3.562619429E-1
8.437697167E0,1.627537394E-1,-3.795135319E-2,-2.266860259E-1,2.816303237E-1
8.447647167E0,1.862653935E-1,-1.063327861E-1,-7.892103910E-2,2.285388121E-1
8.457597167E0,8.111023664E-2,-8.600084782E-2,4.835705817E-2,1.277240047E-1
8.467547167E0,-5.862944663E-2,-3.628197312E-2,2.123264337E-1,2.232404713E-1
8.477497167E0,-1.505415371E-1,-3.109256923E-2,3.482741976E-1,3.806893996E-1
8.487447167E0,-2.117180309E-1,1.461803913E-5,3.548470527E-1,4.132081263E-1
8.497397167E0,-2.111394489E-1,5.029950321E-2,2.279829383E-1,3.147794896E-1
8.507346167E0,-1.157201985E-1,5.478139400E-2,3.598201096E-2,1.329919944E-1
8.517296167E0,-1.799480617E-2,7.599743128E-2,-9.691643000E-2,1.244677348E-1
8.527246167E0,4.447450697E-2,1.289199954E-1,-1.577654797E-1,2.085384702E-1
8.537196167E0,8.929867744E-2,5.476385236E-2,-1.882166094E-1,2.154038657E-1
8.547146167E0,4.638713121E-2,1.770595372E-2,-1.097159851E-1,1.204278378E-1
8.557096167E0,-1.167805910E-2,-7.536125422E-2,-1.911279380E-2,7.861930163E-2
8.567045167E0,-1.034957170E-3,-1.457038432E-1,3.246081769E-2,1.492795557E-1
8.576995167E0,3.395215005E-2,-1.576894659E-1,-9.717487693E-3,1.615956240E-1
8.586945167E0,7.544954717E-2,-1.330551463E-1,-3.936813354E-2,1.579435218E-1
8.596895167E0,4.419530243E-2,-7.554719567E-2,-1.141218621E-1,1.438207319E-1
8.606845167E0,1.066514593E-1,-1.287615359E-2,-1.451805174E-1,1.806037424E-1
8.616795167E0,1.410868818E-1,-8.355261862E-2,-2.091981733E-1,2.658014748E-1
8.626745167E0,5.601515651E-2,-1.351689148E-1,-1.655545557E-1,2.209448895E-1
8.636694167E0,-5.875925481E-2,-1.900432795E-1,-6.304818749E-2,2.086724037E-1
8.646644167E0,-1.264741051E-1,-2.670885319E-1,6.695763588E-2,3.030104093E-1
8.656594167E0,-1.951935071E-1,-3.045270842E-1,1.826798809E-1,4.052273302E-1
8.666544167E0,-2.497670326E-1,-2.892956722E-1,2.847693425E-1,4.766226337E-1
8.676494167E0,-3.395750025E-1,-2.070171618E-1,3.291549718E-1,5.162463396E-1
8.686444167E0,-4.046977821E-1,-5.154963791E-2,2.566869199E-1,4.820019034E-1
8.696393167E0,-4.109136647E-1,-1.064485610E-2,3.137510669E-1,5.171103217E-1
8.706343167E0,-3.758622381E-1,2.693402946E-2,2.561489761E-1,4.556425813E-1
8.716293167E0,-2.851476574E-1,4.875057578E-2,1.560048831E-1,3.286690261E-1
8.726243167E0,-1.459394860E-1,4.995334804E-2,5.705654562E-2,1.644661666E-1
8.736193167E0,-8.806228369E-2,7.114190340E-2,-2.689426839E-2,1.163590903E-1
8.746143167E0,-9.481230944E-2,9.343499780E-2,-2.540907562E-2,1.355178732E-1
8.756093167E0,-1.309700292E-1,1.072010976E-1,5.001825213E-2,1.764852669E-1
8.766042167E0,-2.020894209E-1,1.357068586E-1,2.324800318E-1,3.366057794E-1
8.775992167E0,-2.852271795E-1,1.762619770E-1,3.177072930E-1,4.619098965E-1
8.785942167E0,-2.372224161E-1,2.068130940E-1,3.327656275E-1,4.580164772E-1
8.795892167E0,-1.420926028E-1,1.798930979E-1,1.476702619E-1,2.726872580E-1
8.805842167E0,3.744352251E-2,1.223950875E-1,-6.678397357E-2,1.443699205E-1
8.815792167E0,1.724694729E-1,5.548890710E-2,-2.870778233E-1,3.394678402E-1
8.825742167E0,2.521661451E-1,-3.389221609E-2,-3.626741356E-1,4.430225453E-1
8.835691167E0,2.312260965E-1,-1.229745466E-1,-3.986818743E-1,4.770067962E-1
8.845641167E0,1.741026002E-1,-2.070867437E-1,-3.044095552E-1,4.072613560E-1
8.855591167E0,5.175487518E-2,-2.120814353E-1,-2.117966759E-1,3.041626773E-1
8.865541167E0,-1.169250172E-1,-1.687623382E-1,-8.409056246E-2,2.218634921E-1
8.875491167E0,-2.145042291E-1,-1.969511801E-1,-1.340064883E-2,2.915157098E-1
8.885441167E0,-2.073156622E-1,-2.018862301E-1,1.443736017E-2,2.897348289E-1
8.895391167E0,-1.632548457E-1,-1.630841070E-1,-1.001628041E-2,2.309738005E-1
8.905340167E0,-1.230321416E-1,-1.620544124E-1,-6.614370346E-2,2.139474934E-1
8.915290167E0,-1.451825640E-1,-1.513230175E-1,-4.131876469E-2,2.137378600E-1
8.925240167E0,-2.088251209E-1,-1.708521330E-1,-3.091598332E-2,2.715772091E-1
8.935190167E0,-3.087326941E-1,-1.291375118E-1,-9.743215442E-3,3.347944199E-1
8.945140167E0,-3.626966473E-1,-7.265340865E-2,5.305178761E-3,3.699398880E-1
8.955090167E0,-3.419942880E-1,5.875457704E-2,4.931541681E-3,3.470396424E-1
8.965039167E0,-2.615389395E-1,1.338603079E-1,-4.678298771E-2,2.975060450E-1
8.974989167E0,-2.026574779E-1,2.014664000E-1,-2.030188358E-1,3.505358917E-1
8.984939167E0,-1.094481826E-1,2.521225834E-1,-2.283156449E-1,3.573132175E-1
8.994889167E0,-4.933734387E-2,2.197570753E-1,-2.905481458E-1,3.676215046E-1
9.004839167E0,-7.408890009E-2,2.068809217E-1,-3.167998052E-1,3.855528465E-1
9.014789167E0,-1.292021236E-1,1.901374197E-1,-3.657509404E-1,4.319944184E-1
9.024739167E0,-1.645266151E-1,1.483385986E-1,-3.765139103E-1,4.368478815E-1
9.034688167E0,-1.892375332E-1,8.438818574E-2,-3.980737638E-1,4.487704662E-1
9.044638167E0,-1.544998097E-1,4.669411004E-2,-3.361190057E-1,3.728625982E-1
9.054588167E0,-9.267222852E-2,-1.456249058E-2,-2.303686023E-1,2.487366097E-1
9.064538167E0,1.862513602E-2,-1.183189934E-1,-1.316845590E-1,1.780087160E-1
9.074488167E0,1.921742973E-1,-2.343716061E-1,2.881420165E-1,4.181947297E-1
9.084438167E0,4.211132553E-1,-3.000925559E-1,8.457114512E-1,9.912717965E-1
9.094388167E0,5.292402595E-1,-4.867690086E-1,1.444083341E0,1.613200551E0
9.104337167E0,3.517901284E-1,-6.566236067E-1,2.114415160E0,2.241798904E0
9.114287167E0,4.529428661E-2,-7.081884474E-1,2.459511396E0,2.559839596E0
9.124237167E0,-2.585132977E-1,-7.896313906E-1,2.430749527E0,2.568830497E0
9.134187167E0,-4.848753878E-1,-8.698809171E-1,2.077270723E0,2.303660263E0
9.144137167E0,-6.001316097E-1,-9.665570265E-1,1.615614921E0,1.976006581E0
9.154087167E0,-6.299778450E-1,-9.980097842E-1,1.356625367E0,1.798145712E0
9.164037167E0,-5.697374904E-1,-1.028464422E0,1.329887220E0,1.775088700E0
9.173986167E0,-3.835217983E-1,-1.202030248E0,1.955915563E0,2.327567695E0
9.183936167E0,3.180885315E-2,-1.388723658E0,2.988494671E0,3.295552396E0
9.193886167E0,2.513589370E-1,-1.470492876E0,3.830737261E0,4.110970515E0
9.203836167E0,2.363734004E-1,-1.707583437E0,5.028397885E0,5.315684233E0
9.213786167E0,6.994965613E-2,-1.932940391E0,5.895365719E0,6.204553850E0
9.223736167E0,-1.387424406E-1,-2.255287449E0,6.201085635E0,6.599926818E0
9.233686167E0,-2.722109851E-1,-2.855598276E0,6.218389301E0,6.848131558E0
9.243635167E0,-5.008803865E-1,-3.349556437E0,5.790466086E0,6.708196999E0
9.253585167E0,-7.152135846E-1,-3.746423335E0,5.257723929E0,6.495450653E0
9.263535167E0,-4.662166303E-1,-4.771456026E0,5.228248115E0,7.093569546E0
9.273485167E0,-5.100570068E-1,-5.410615169E0,5.146445568E0,7.484705515E0
9.283435167E0,-3.626256037E-1,-5.977258313E0,4.936606539E0,7.760747283E0
9.293385167E0,-2.704147205E-1,-5.970603597E0,4.489156548E0,7.474875112E0
9.303335167E0,-3.457651573E-1,-5.802352306E0,3.956497421E0,7.031409366E0
9.313284167E0,-5.843534830E-1,-5.847787510E0,3.369037020E0,6.774104974E0
9.323234167E0,-9.904396865E-1,-5.404855077E0,2.619119626E0,6.087135352E0
9.333184167E0,-1.249444735E0,-5.004967507E0,1.763693318E0,5.451736055E0
9.343134167E0,-1.107069419E0,-5.324696767E0,1.271767358E0,5.585283393E0
9.353084167E0,-9.675013518E-1,-5.203305062E0,7.786658147E-1,5.349463794E0
9.363034167E0,-6.934072709E-1,-4.777089819E0,4.969893569E-1,4.852669286E0
9.372983167E0,9.760289311E-2,-4.657548172E0,3.623823595E-1,4.672644035E0
9.382933167E0,-1.908998966E-1,-3.843157332E0,-2.511870289E-1,3.856085576E0
9.392883167E0,-5.574355334E-1,-2.941740627E0,-2.479979575E-1,3.004342736E0
9.402833167E0,-3.700153148E-1,-2.336433354E0,-1.088241677E0,2.603862919E0
9.412783167E0,-6.470528841E-1,-2.201973706E0,-2.843158910E0,3.653890834E0
9.422735750E0,-6.555635065E-1,-2.124501607E0,-4.691919860E0,5.192049939E0
9.432685750E0,-3.968704069E-1,-2.512303568E0,-5.824056585E0,6.355219150E0
9.442635750E0,-1.672058094E-1,-2.861065423E0,-6.506519623E0,7.109743367E0
9.452584750E0,-1.780401152E-1,-3.146748101E0,-6.911969649E0,7.596647045E0
9.462534750E0,-4.529978299E-1,-2.829130855E0,-6.989055832E0,7.553548163E0
9.472484750E0,-3.068490136E-1,-2.546413885E0,-6.014970515E0,6.538979300E0
9.482434750E0,-3.717770809E-1,-2.308000391E0,-5.087023823E0,5.598472594E0
9.492384750E0,-3.080664039E-1,-2.196925951E0,-4.355268758E0,4.887714650E0
9.502334750E0,6.252837002E-2,-2.499041790E0,-4.055947450E0,4.764433794E0
9.512284750E0,1.973622394E-1,-2.282304802E0,-4.307067820E0,4.878391156E0
9.522233750E0,3.265365887E-1,-2.290690586E0,-4.427341538E0,4.995522255E0
9.532183750E0,5.230270082E-1,-2.306530255E0,-4.107446802E0,4.739700233E0
9.542133750E0,3.889064991E-1,-1.505832131E0,-4.081747119E0,4.368001628E0
9.552083750E0,5.691001439E-1,-1.799797244E0,-4.279071937E0,4.676922250E0
9.562033750E0,9.214492661E-1,-1.826372547E0,-3.593516892E0,4.134981146E0
9.571983750E0,7.966334313E-1,-1.423261114E0,-3.627554119E0,3.977366705E0
9.581933750E0,1.029442077E0,-1.162125925E0,-3.553482760E0,3.877825084E0
9.591882750E0,1.151002182E0,-1.679312734E0,-3.444787114E0,4.001431687E0
9.601832750E0,9.083608586E-1,-1.354326681E0,-2.683072670E0,3.139776928E0
9.611782750E0,6.255661207E-1,-1.380391960E0,-1.776261908E0,2.334934967E0
9.621732750E0,3.283620894E-1,-1.126865972E0,-5.178364348E-1,1.282888598E0
9.631682750E0,2.484557945E-1,-9.335352416E-1,3.011240047E-1,1.011876472E0
9.641632750E0,3.006211442E-1,-6.598779476E-1,4.064323586E-1,8.312636406E-1
9.651582750E0,4.317268288E-1,-3.289782397E-1,2.020177925E-1,5.791596718E-1
9.661531750E0,6.937697983E-1,-1.355447446E-1,4.585678875E-2,7.083726109E-1
9.671481750E0,8.513095754E-1,6.119703211E-2,-2.348031306E-1,8.852149909E-1
9.681431750E0,9.660272688E-1,1.610497145E-1,-2.644935375E-1,1.014446906E0
9.691381750E0,1.005795352E0,1.613939694E-1,-2.319748324E-1,1.044741416E0
9.701331750E0,9.592252028E-1,1.389249834E-1,-1.910145020E-1,9.878763489E-1
9.711281750E0,8.710258019E-1,1.072662941E-1,-1.426878494E-1,8.891298149E-1
9.721231750E0,7.426308864E-1,5.141412869E-2,-1.001744986E-1,7.511184835E-1
9.731180750E0,6.099142939E-1,-8.625118174E-3,-1.632074833E-2,6.101935802E-1
9.741130750E0,5.456235731E-1,-5.833222535E-2,1.874693352E-1,5.798728168E-1
9.751080750E0,4.945183235E-1,4.101525765E-2,3.018654317E-1,5.808212828E-1
9.761030750E0,4.241254485E-1,1.319563449E-1,2.351510400E-1,5.025842065E-1
9.770980750E0,3.579782367E-1,2.065257034E-1,2.608618319E-2,4.141035777E-1
9.780930750E0,3.446009767E-1,2.703580390E-1,-1.358395904E-1,4.585800876E-1
9.790880750E0,4.406344771E-1,2.680475849E-1,-1.363541454E-1,5.334798058E-1
9.800830750E0,5.033862108E-1,2.266338395E-1,-1.237721068E-1,5.657562274E-1
9.810779750E0,5.227562821E-1,1.047379946E-1,3.535811305E-2,5.343167358E-1
9.820729750E0,4.630146950E-1,1.160482273E-2,2.428892452E-1,5.229841921E-1
9.830679750E0,3.567140687E-1,-3.607224081E-2,4.989154297E-1,6.143799633E-1
9.840629750E0,2.723855245E-1,-6.195000730E-2,5.888222176E-1,6.517233165E-1
9.850579750E0,2.444446045E-1,-7.520374484E-2,5.707625073E-1,6.254427293E-1
9.860529750E0,2.165101165E-1,-9.118221179E-2,4.396521449E-1,4.984825321E-1
9.870479750E0,2.115399832E-1,-9.961287349E-2,2.450234789E-1,3.386862770E-1
9.880428750E0,2.475898218E-1,-1.052904468E-1,8.262700438E-3,2.691747950E-1
9.890378750E0,3.223564142E-1,-5.645779073E-2,-2.459730667E-1,4.093945401E-1
9.900328750E0,3.058766216E-1,-5.928016864E-2,-4.759709555E-1,5.688787186E-1
9.910278750E0,2.372776723E-1,-7.178407386E-2,-5.512982959E-1,6.044695675E-1
9.920228750E0,1.837920213E-1,-1.864780860E-1,-4.155762345E-1,4.911793871E-1
9.930178750E0,4.193564594E-2,-3.193850054E-1,-2.106360036E-1,3.848803789E-1
9.940128750E0,-4.504870355E-2,-4.179289348E-1,5.532635450E-2,4.239752183E-1
9.950077750E0,-4.812726259E-2,-4.723010968E-1,1.193440104E-1,4.895176730E-1
9.960027750E0,-3.834077775E-2,-5.030418098E-1,1.965600014E-2,5.048835866E-1
9.969977750E0,-7.020225585E-2,-4.626140146E-1,-2.186250544E-1,5.164658727E-1
9.979927750E0,-9.152763605E-2,-3.051120982E-1,-5.244800413E-1,6.136367120E-1
9.989877750E0,-8.797369838E-2,-2.250705133E-1,-7.602777833E-1,7.977583690E-1
9.999827750E0,-6.384633243E-2,-1.418289665E-1,-8.679530901E-1,8.817790973E-1
1.000977775E1,-1.361009610E-1,-5.257684752E-2,-8.434275287E-1,8.559543170E-1
1.001972775E1,-2.467601019E-1,-3.315999851E-2,-7.661823016E-1,8.056211596E-1
1.002967675E1,-3.187668085E-1,-1.590630499E-1,-6.059066123E-1,7.028770553E-1
1.003962675E1,-3.818980265E-1,-2.692873773E-1,-4.076468253E-1,6.201110613E-1
1.004957675E1,-3.532753211E-1,-3.864670408E-1,3.883135915E-3,5.236175177E-1
1.005952675E1,-2.364111149E-1,-3.104425661E-1,2.546520889E-1,4.659533115E-1
1.006947675E1,-1.008358186E-1,-1.129322460E-1,1.411804372E-1,2.070107977E-1
1.007942675E1,4.891137421E-2,8.787999675E-2,-1.165835398E-1,1.539705755E-1
1.008937675E1,1.668286639E-1,2.294862574E-1,-4.406795007E-1,5.241127434E-1
1.009932675E1,2.236302710E-1,2.921961835E-1,-6.289756322E-1,7.286970932E-1
1.010927575E1,1.800544810E-1,2.482316999E-1,-6.196961010E-1,6.914201693E-1
1.011922575E1,6.681613326E-2,1.932303044E-1,-4.713855690E-1,5.138158239E-1
1.012917575E1,-4.124275088E-2,1.102580220E-1,-2.999674255E-1,3.222394331E-1
1.013912575E1,-4.184969187E-2,-1.394838676E-2,-1.137669361E-1,1.220199572E-1
1.014907575E1,2.015769124E-2,-8.130217150E-2,1.347315431E-2,8.484044727E-2
1.015902575E1,1.600675285E-1,-1.378412385E-1,2.082842535E-1,2.966549358E-1
1.016897575E1,2.777053213E-1,-1.669055548E-1,2.319017422E-1,3.984421260E-1
1.017892475E1,3.289742929E-1,-1.094113451E-1,2.137291807E-1,4.072776577E-1
1.018887475E1,3.030342901E-1,-3.039923564E-2,9.679305375E-2,3.195665654E-1
1.019882475E1,2.341026342E-1,-9.971841574E-3,-3.935994744E-2,2.375977408E-1
1.020877475E1,1.263296789E-1,-1.688822061E-3,-1.375773829E-1,1.867875161E-1
1.021872475E1,1.386374831E-3,-1.066839114E-2,-2.247248697E-1,2.249822297E-1
1.022867475E1,1.088225305E-2,2.170778811E-4,-3.166167873E-1,3.168038203E-1
1.023862475E1,1.006680036E-1,-7.796823531E-3,-4.902527797E-1,5.005423313E-1
1.024857475E1,2.202581817E-1,-1.162061021E-1,-5.085627508E-1,5.662628332E-1
1.025852375E1,2.800477159E-1,-1.143661295E-1,-5.789515328E-1,6.532160532E-1
1.026847375E1,3.139609820E-1,-7.736787245E-2,-5.232152885E-1,6.150703407E-1
1.027842375E1,3.053626513E-1,-9.158026099E-2,-3.323095447E-1,4.605029061E-1
1.028837375E1,2.288652831E-1,-1.011046444E-1,-1.616228878E-1,2.978647761E-1
1.029832375E1,1.628531420E-1,-7.444806531E-2,4.892365336E-2,1.856264640E-1
1.030827375E1,2.571155208E-1,-1.395496488E-2,1.669420999E-1,3.068758655E-1
1.031822375E1,4.332623076E-1,3.844938979E-2,1.498992205E-2,4.352232537E-1
1.032817375E1,5.161401576E-1,2.469001427E-2,-2.828397614E-1,5.890743499E-1
1.033812275E1,5.497885448E-1,-2.783464685E-2,-4.995024902E-1,7.433336729E-1
1.034807275E1,4.531937116E-1,-3.937076479E-3,-5.994097710E-1,7.514599885E-1
1.035802275E1,2.728264046E-1,-2.295573011E-2,-5.337215656E-1,5.998499164E-1
1.036797275E1,1.455009449E-1,-7.027987763E-2,-3.929422474E-1,4.248686808E-1
1.037792275E1,2.398235500E-2,-1.928024344E-1,-3.221225256E-1,3.761792838E-1
1.038787275E1,-2.528979242E-2,-2.834974270E-1,-3.191287512E-1,4.276137562E-1
1.039782275E1,-7.943851769E-2,-3.131974818E-1,-3.594874030E-1,4.833573560E-1
1.040777175E1,-1.380457449E-1,-3.397325850E-1,-2.920766079E-1,4.688108380E-1
1.041772175E1,-8.972318530E-2,-2.727255401E-1,-1.940994930E-1,3.465603604E-1
1.042766787E1,6.661498904E-2,-1.766961327E-1,-1.409418708E-1,2.356346558E-1
1.043761787E1,2.112528849E-1,-1.419008142E-1,-2.733397901E-1,3.734678879E-1
1.044756788E1,3.401606011E-1,-1.616725892E-1,-4.575855553E-1,5.926481259E-1
1.045751787E1,5.287882698E-1,-2.050215071E-1,-6.108989650E-1,8.335756703E-1
1.046746787E1,6.193867832E-1,-3.418447454E-1,-8.190972644E-1,1.082320722E0
1.047741787E1,5.552773261E-1,-5.107200810E-1,-8.945930046E-1,1.170241237E0
1.048736788E1,3.211244059E-1,-6.787822151E-1,-7.485155243E-1,1.060255474E0
1.049731688E1,4.253206193E-2,-7.369204956E-1,-2.242834049E-1,7.714686247E-1
1.050726687E1,-2.130789703E-1,-6.674175668E-1,3.315131539E-1,7.750805295E-1
1.051721687E1,-4.747143888E-1,-5.692606500E-1,6.192856264E-1,9.658810101E-1
1.052716687E1,-7.083510000E-1,-4.545821330E-1,6.359338188E-1,1.054901833E0
1.053711687E1,-8.285603982E-1,-3.114247522E-1,4.746717042E-1,1.004395807E0
1.054706687E1,-9.729287374E-1,-1.968468073E-1,2.875467700E-1,1.033451566E0
1.055701687E1,-1.103064954E0,-1.932291350E-1,2.923286229E-1,1.157387495E0
1.056696687E1,-1.193395665E0,-2.368914637E-1,3.570859516E-1,1.267998878E0
1.057691587E1,-1.204724645E0,-2.809756690E-1,5.479840940E-1,1.352994961E0
1.058686587E1,-1.224858947E0,-3.786013663E-1,7.696537936E-1,1.495321169E0
1.059681587E1,-1.212679197E0,-4.072024369E-1,9.456725264E-1,1.590817773E0
1.060676587E1,-1.113927911E0,-4.702725515E-1,1.129861574E0,1.654865203E0
1.061671587E1,-9.232730126E-1,-4.498236689E-1,1.370834686E0,1.712881235E0
1.062666587E1,-7.203225893E-1,-3.986874291E-1,1.493934363E0,1.705771433E0
1.063661588E1,-4.635865527E-1,-2.975384921E-1,1.401997422E0,1.506332771E0
1.064656587E1,-2.503385979E-1,-2.283080435E-1,1.022269297E0,1.076953338E0
1.065651487E1,-6.986077845E-2,-1.397934777E-1,3.930024737E-1,4.229346156E-1
1.066646487E1,6.345398426E-3,-1.136406362E-1,-2.205973202E-1,2.482289990E-1
1.067641487E1,-3.531250477E-2,-1.024341550E-1,-6.627871567E-1,6.715850983E-1
1.068636488E1,-1.264676732E-1,-1.524655634E-1,-7.889519441E-1,8.134402194E-1
1.069631487E1,-2.008120966E-1,-2.790580747E-1,-5.982011515E-1,6.899590747E-1
1.070626487E1,-2.737315536E-1,-3.303562823E-1,-2.421922570E-1,4.926675614E-1
1.071621487E1,-2.491504437E-1,-3.272154504E-1,2.255376327E-1,4.690555600E-1
1.072616487E1,-5.217061222E-2,-3.405564576E-1,6.413097489E-1,7.279963377E-1
1.073611387E1,1.907233107E-1,-3.021373272E-1,7.280479306E-1,8.109970006E-1
1.074606387E1,3.612310427E-1,-1.793677256E-1,4.090495723E-1,5.744407714E-1
1.075601387E1,3.799994355E-1,-2.371981502E-2,-1.316845590E-1,4.028684943E-1
1.076596387E1,2.897570175E-1,1.284492946E-1,-6.342346179E-1,7.090217917E-1
1.077591387E1,1.548401177E-1,1.768209708E-1,-8.929154384E-1,9.233304381E-1
1.078586387E1,7.065015256E-2,2.441674465E-1,-7.384805328E-1,7.810010776E-1
1.079581387E1,6.516546428E-2,3.109786096E-1,-5.214114225E-1,6.105932401E-1
1.080576387E1,9.874777794E-2,4.387168828E-1,-6.150791395E-1,7.619356762E-1
1.081571287E1,2.189127374E-1,4.089758974E-1,-8.422592551E-1,9.615532871E-1
1.082566287E1,3.486308777E-1,2.719431826E-1,-1.131020492E0,1.214373886E0
1.083561288E1,5.752952689E-1,-8.036179304E-2,-1.367936221E0,1.486160210E0
1.084556287E1,9.275116593E-1,-4.591406223E-1,-1.526194037E0,1.844005484E0
1.085551287E1,1.163860209E0,-6.432109711E-1,-2.047625924E0,2.441528797E0
1.086546287E1,1.274630447E0,-6.354119548E-1,-2.708060746E0,3.059742495E0
1.087541288E1,1.279692966E0,-5.394512522E-1,-3.285720629E0,3.567153178E0
1.088536287E1,1.270454366E0,-4.674860609E-1,-3.855848714E0,4.086583758E0
1.089531187E1,1.175267542E0,-2.895497337E-1,-4.918474908E0,5.065223417E0
1.090526187E1,1.018308393E0,-9.808499604E-2,-6.440390537E0,6.521135095E0
1.091521187E1,5.596071893E-1,-4.704888985E-1,-7.566088309E0,7.601329641E0
1.092516187E1,-9.349113107E-3,-1.323424292E0,-7.913744456E0,8.023645716E0
1.093511187E1,-9.965701997E-2,-1.951353273E0,-7.032248629E0,7.298645895E0
1.094506187E1,-8.358723414E-1,-1.882759294E0,-5.770952758E0,6.127590135E0
1.095501187E1,-3.243199092E-1,-2.578709811E0,-4.149638556E0,4.896368842E0
1.096496187E1,7.381817400E-2,-2.251818881E0,-2.502500710E0,3.367290781E0
1.097491187E1,-1.532245320E-1,-1.745027837E0,-2.738510122E0,3.250851826E0
1.098486088E1,2.949592853E-1,-2.116925955E0,-3.581208503E0,4.170543228E0
1.099481087E1,8.700610113E-1,-2.834785112E0,-3.549491451E0,4.625138090E0
1.100476087E1,1.191709912E0,-3.270364671E0,-4.386677662E0,5.599857008E0
1.101471087E1,1.168929745E0,-4.445786580E0,-5.163523530E0,6.913276380E0
1.102466088E1,2.041543651E-1,-4.640632762E0,-4.694681500E0,6.604330839E0
1.103461087E1,1.018994272E-1,-4.986026037E0,-3.682382290E0,6.199256283E0
1.104456087E1,5.653655273E-1,-4.916359971E0,-1.664502029E0,5.221187657E0
1.105451087E1,4.013072741E-1,-3.649669458E0,6.596588963E-1,3.730453664E0
1.106446088E1,1.446663133E0,-3.543472912E0,-7.631397030E-1,3.902744765E0
1.107440988E1,2.082998071E0,-4.014329308E0,-4.685126857E-1,4.546781817E0
1.108435987E1,2.040157276E0,-4.307020458E0,-1.674198174E0,5.051297503E0
1.109430987E1,1.750701975E0,-5.260642859E0,-3.203364351E0,6.403191693E0
1.110425987E1,8.103670791E-1,-5.758608701E0,-2.857676377E0,6.479551161E0
1.111420987E1,-4.151350620E-1,-5.672319000E0,-1.644867956E0,5.920568432E0
1.112415987E1,-8.214212403E-1,-5.147217400E0,-9.534469843E-3,5.212357502E0
1.113410987E1,-6.069585264E-1,-4.812996401E0,9.644789261E-1,4.946064355E0
1.114405987E1,-2.798541731E-1,-4.537697793E0,1.474888081E0,4.779572625E0
1.115400887E1,-1.001598805E-2,-4.474098798E0,1.649139639E0,4.768366798E0
1.116395887E1,1.922856867E-2,-4.581744869E0,1.582602126E0,4.847410161E0
1.117390887E1,-4.481078035E-1,-4.702810884E0,2.364834450E0,5.282960608E0
1.118385887E1,-1.342941713E0,-3.937071217E0,4.031341782E0,5.792731547E0
1.119380887E1,-2.081630407E0,-2.970908293E0,5.858894881E0,6.891018100E0
1.120375887E1,-2.060014128E0,-2.330682033E0,7.408119346E0,8.034672936E0
1.121370888E1,-1.851994753E0,-1.718672097E0,7.534876456E0,7.947205896E0
1.122365887E1,-1.536359129E0,-1.858325826E0,6.720105547E0,7.139579316E0
1.123360887E1,-1.284359044E0,-1.813944874E0,5.780414722E0,6.192993502E0
1.124355787E1,-1.082258222E0,-1.885387909E0,5.012275357E0,5.463412366E0
1.125350787E1,-8.940661705E-1,-2.129154822E0,4.660153692E0,5.200931359E0
1.126345788E1,-7.634615922E-1,-2.160814571E0,4.940190298E0,5.445867552E0
1.127340787E1,-6.763524047E-1,-2.050686357E0,5.857717252E0,6.243045612E0
1.128335787E1,-5.397064832E-1,-2.017274782E0,6.534469898E0,6.860027514E0
1.129330787E1,-4.299530759E-1,-2.017318636E0,7.299075791E0,7.584915393E0
1.130325787E1,-2.846982989E-1,-1.929930244E0,7.874965721E0,8.112999999E0
1.131320787E1,-1.139426449E-1,-1.916229633E0,8.512505186E0,8.726262858E0
1.132315787E1,-2.256235868E-2,-2.078567051E0,9.064210448E0,9.299508647E0
1.133310687E1,-1.142297432E-1,-2.415498235E0,9.200036005E0,9.512536079E0
1.134305687E1,-3.747623768E-1,-3.088241445E0,8.785709320E0,9.320212998E0
1.135300687E1,-3.888220069E-1,-4.463709465E0,7.659094706E0,8.873421913E0
1.136295687E1,-4.446845511E-1,-5.281491106E0,6.117661071E0,8.094298588E0
1.137290687E1,-7.965498161E-1,-4.873558352E0,5.168819354E0,7.148619176E0
1.138285687E1,-1.115750196E0,-4.455229833E0,4.563964655E0,6.474854805E0
1.139280687E1,-1.312837908E0,-3.780923662E0,4.030358280E0,5.680027726E0
1.140275688E1,-1.049692446E0,-3.453760836E0,3.397632244E0,4.957239454E0
1.141270687E1,-1.233543232E-1,-5.306118994E0,2.917783707E0,6.056696858E0
1.142265637E1,1.809429654E-1,-6.140751141E0,2.467636980E0,6.620483154E0
1.143260637E1,-4.856928286E-1,-5.179479412E0,1.368867975E0,5.379284715E0
1.144255637E1,-9.078223300E-1,-4.713028893E0,1.173932623E0,4.941143647E0
1.145250637E1,-7.001222134E-1,-4.769280277E0,1.363978241E0,5.009654890E0
1.146245637E1,-1.416376895E-1,-4.776344299E0,1.129325969E0,4.910081795E0
1.147240637E1,2.315672815E-1,-4.135739139E0,1.118070663E0,4.290459607E0
1.148235637E1,7.791917717E-1,-3.740463853E0,5.631254590E-1,3.862035724E0
1.149230638E1,1.040263519E0,-3.830071848E0,1.970301175E-1,3.973716071E0
1.150225538E1,8.923587835E-1,-3.575197565E0,-3.365780121E-1,3.700219802E0
1.151220537E1,6.460816616E-1,-3.701055081E0,-1.309571654E0,3.978719410E0
1.152215537E1,1.465212840E-1,-4.151300919E0,-2.693646190E0,4.950807773E0
1.153210537E1,-4.530206341E-1,-3.745124084E0,-4.225548279E0,5.664489417E0
1.154205538E1,-2.722603941E-1,-3.772282939E0,-6.197740443E0,7.260594390E0
1.155200537E1,-1.727530628E-1,-2.708729668E0,-7.333745686E0,7.819903185E0
1.156195537E1,-4.006003457E-1,-8.265767303E-1,-7.651982152E0,7.706915115E0
1.157190537E1,-9.958568394E-2,-8.207011557E-1,-8.448995068E0,8.489345402E0
1.158185537E1,2.499316317E-1,-1.431978582E0,-8.850698783E0,8.969275190E0
1.159180537E1,1.975569516E-1,-1.208775304E0,-9.051648290E0,9.134139436E0
1.160175437E1,1.222839904E-1,-1.405122174E0,-9.862940691E0,9.963278615E0
1.161170437E1,1.732588470E-1,-1.298101463E0,-9.015040627E0,9.109667586E0
1.162165437E1,5.285900491E-1,-1.698539549E0,-6.961066380E0,7.184767859E0
1.163160437E1,6.822595543E-1,-2.293574140E0,-5.062352666E0,5.599408447E0
1.164155437E1,8.403893155E-1,-2.667411780E0,-3.470675077E0,4.457232919E0
1.165150437E1,1.145381838E0,-2.602878107E0,-2.011794772E0,3.483416742E0
1.166145437E1,1.449026577E0,-2.447536299E0,-1.054496226E0,3.033492088E0
1.167140437E1,1.634314901E0,-2.162225650E0,-9.274081635E-1,2.864662434E0
1.168135337E1,1.706983513E0,-1.823235954E0,-1.383484553E0,2.855172773E0
1.169130338E1,1.619308607E0,-1.565269663E0,-1.770221150E0,2.864596377E0
1.170125337E1,1.353790053E0,-1.145549653E0,-1.915796354E0,2.610614331E0
1.171120337E1,1.141696923E0,-6.596357998E-1,-1.906695748E0,2.318206187E0
1.172115337E1,1.045189798E0,-4.544472085E-1,-1.767123295E0,2.102776431E0
1.173110338E1,1.033170846E0,-5.129624882E-1,-1.547187295E0,1.929860367E0
1.174105337E1,9.455035418E-1,-5.873984206E-1,-1.093074401E0,1.560072273E0
1.175100337E1,8.294234473E-1,-6.968888493E-1,-4.000939769E-1,1.154847398E0
1.176095337E1,5.910014749E-1,-6.587177870E-1,3.066496235E-1,9.366033620E-1
1.177090237E1,4.023264438E-1,-5.893689322E-1,9.439236242E-1,1.183306433E0
1.178085237E1,2.880671722E-1,-5.125759873E-1,1.245445240E0,1.377262024E0
1.179080237E1,1.855362457E-1,-3.242852645E-1,1.241959714E0,1.296938149E0
1.180075237E1,3.931433916E-2,-2.008977583E-1,1.006773591E0,1.027374610E0
1.181070237E1,-1.642734307E-1,-5.200338185E-2,6.339931279E-1,6.569911704E-1
1.182065237E1,-3.215892595E-1,5.391118214E-2,2.050577599E-1,3.851944344E-1
1.183060237E1,-4.192839539E-1,3.530738845E-2,-6.315051377E-2,4.254804732E-1
1.184055237E1,-4.856147683E-1,-3.493448228E-2,-1.689880407E-1,5.153630556E-1
1.185050237E1,-4.399152696E-1,-2.002145112E-1,-3.430327535E-2,4.845492850E-1
1.186045137E1,-4.022919452E-1,-2.318119875E-1,1.768414360E-1,4.968385052E-1
1.187040137E1,-3.434695405E-1,-2.296692753E-1,4.041718251E-1,5.779914925E-1
1.188035138E1,-3.557095170E-1,-1.846334356E-1,6.016796601E-1,7.229364975E-1
1.189030137E1,-3.653580076E-1,-7.810038239E-2,7.960545570E-1,8.793685240E-1
1.190025137E1,-3.280773300E-1,2.062108308E-2,9.383822179E-1,9.942942977E-1
1.191020137E1,-2.892676055E-1,6.230120569E-2,9.457771915E-1,9.909852087E-1
1.192015138E1,-2.258387643E-1,4.745190918E-2,7.070195889E-1,7.437281293E-1
1.193010137E1,-6.835628986E-2,-1.894848704E-2,4.741086173E-1,4.793856574E-1
1.194005137E1,4.916982114E-2,-5.726032108E-2,1.387468261E-1,1.579465018E-1
1.195000037E1,7.291945696E-2,-5.404025942E-2,-8.019631684E-2,1.211158374E-1
1.195995037E1,3.853549004E-2,3.147848547E-2,-5.274480879E-2,7.251133631E-2
1.196990037E1,-6.552857637E-2,7.577348292E-2,1.110661072E-1,1.495703687E-1
1.197985037E1,-1.801000893E-1,4.995685637E-2,3.834060234E-1,4.265347681E-1
1.198980037E1,-2.755272335E-1,-1.826056212E-2,5.569361812E-1,6.216322180E-1
1.199975037E1,-3.062356406E-1,-7.024143219E-2,6.343041998E-1,7.078530528E-1
1.200970037E1,-3.316289288E-1,-1.070455617E-1,5.702350885E-1,6.682847857E-1
1.201965037E1,-3.363610804E-1,-1.841717979E-1,3.031646830E-1,4.888423596E-1
1.202960037E1,-3.190217471E-1,-1.553409317E-1,1.216565841E-1,3.751079907E-1
1.203955037E1,-2.944529164E-1,-1.288723406E-1,3.637377441E-2,3.234712531E-1
1.204949937E1,-3.327860928E-1,-1.412418330E-1,4.840559006E-2,3.647450343E-1
1.205944937E1,-3.874721771E-1,-1.877926862E-1,4.368630230E-2,4.327924145E-1
1.206939938E1,-3.988648921E-1,-2.228262788E-1,-1.814566433E-2,4.572461239E-1
1.207934937E1,-3.665069854E-1,-2.244371867E-1,-2.496837097E-1,4.970325704E-1
1.208929937E1,-2.419665545E-1,-2.017251393E-1,-4.249013740E-1,5.289442532E-1
1.209924937E1,-1.113210458E-1,-1.764856330E-1,-6.316390389E-1,6.652123190E-1
1.210919938E1,-1.478877783E-2,-1.417066866E-1,-6.869010741E-1,7.015216166E-1
1.211914937E1,4.777993798E-2,-5.008637220E-2,-7.348961896E-1,7.381490206E-1
1.212909937E1,5.224019408E-2,2.129789829E-2,-7.676213014E-1,7.696915621E-1
1.213904837E1,6.652260303E-2,-2.200307250E-2,-5.473426545E-1,5.518091820E-1
1.214899837E1,6.124899924E-2,-1.075612861E-1,-1.825424713E-1,2.205507289E-1
1.215894837E1,2.990850806E-2,-5.941180408E-2,1.576111132E-1,1.710717520E-1
1.216889837E1,5.798683763E-2,-6.707282603E-2,3.302659428E-1,3.419602759E-1
1.217884837E1,1.414774758E-1,-9.649396867E-2,2.659763914E-1,3.163390632E-1
1.218879837E1,2.059693408E-1,-1.773197383E-2,-7.565419972E-2,2.201393881E-1
1.219874837E1,2.614243340E-1,5.340437472E-2,-2.924432284E-1,3.958759294E-1
1.220869837E1,2.375396276E-1,4.366115928E-2,-3.830598682E-1,4.528423944E-1
1.221864837E1,1.327411509E-1,-4.195377231E-3,-3.610474402E-1,3.846986722E-1
1.222859737E1,3.032424510E-2,-5.574559987E-2,-1.241077369E-1,1.393910403E-1
1.223854737E1,-3.486753166E-2,-2.314538455E-1,1.582858819E-1,2.825615822E-1
1.224849737E1,3.417814493E-2,-3.285600176E-1,2.608735263E-1,4.209214030E-1
1.225844738E1,2.095735645E-1,-3.373200238E-1,4.547087252E-2,3.997167468E-1
1.226839737E1,3.413072401E-1,-2.133081812E-1,-5.238128740E-1,6.605837867E-1
1.227834737E1,3.879329377E-1,-6.007634014E-2,-1.124488567E0,1.191039743E0
1.228829737E1,3.207870215E-1,4.415349483E-2,-1.470592863E0,1.505821109E0
1.229824738E1,1.693605083E-1,1.830090791E-2,-1.458663958E0,1.468577015E0
1.230819737E1,2.468168199E-2,-1.283162704E-1,-1.134100220E0,1.141603066E0
1.231814637E1,-3.002486765E-2,-3.185183018E-1,-5.962288857E-1,6.766419181E-1
1.232809637E1,1.521854818E-2,-4.526595685E-1,-1.534706998E-1,4.782107745E-1
1.233804637E1,7.811295390E-2,-4.110171604E-1,2.488808870E-2,4.191135367E-1
1.234799637E1,1.446454972E-1,-2.868158680E-1,-1.734851342E-1,3.650791062E-1
1.235794637E1,2.046735978E-1,-1.264208955E-1,-5.735761875E-1,6.219832532E-1
1.236789637E1,2.417624867E-1,-2.372273862E-2,-8.036383957E-1,8.395513917E-1
1.237784637E1,3.413160110E-1,-5.728721827E-2,-6.823706514E-1,7.651196969E-1
1.238779637E1,3.962529409E-1,-1.188484588E-1,-3.941035044E-1,5.713658386E-1
1.239774637E1,4.018773776E-1,-2.393712679E-1,-5.636891305E-2,4.711491111E-1
1.240769637E1,4.002085823E-1,-2.317391896E-1,2.396107113E-1,5.208485906E-1
1.241764537E1,5.034423441E-1,-1.505172712E-1,2.402802175E-1,5.777925455E-1
1.242759529E1,5.839789689E-1,-7.401522517E-2,-1.286557013E-1,6.025462464E-1
1.243754529E1,6.306409192E-1,-4.418126911E-2,-5.458030826E-1,8.352011485E-1
1.244749529E1,7.646900922E-1,-1.014997700E-1,-8.225330883E-1,1.127658557E0
1.245744529E1,8.102580285E-1,-1.894918871E-1,-1.105788002E0,1.383904749E0
1.246739529E1,7.422578341E-1,-2.418738762E-1,-1.350673487E0,1.560054016E0
1.247734529E1,6.730162758E-1,-3.450070658E-1,-1.541143028E0,1.716712735E0
1.248729529E1,6.973091179E-1,-4.749514934E-1,-1.746513029E0,1.939620243E0
1.249724529E1,6.845984405E-1,-4.319449300E-1,-2.150386062E0,2.297697034E0
1.250719529E1,5.922960484E-1,1.201439095E-1,-2.567142264E0,2.637322235E0
1.251714429E1,8.185312539E-1,-4.092328826E-1,-3.224221954E0,3.351577565E0
1.252709429E1,6.483837104E-1,-3.542620388E-1,-3.589374139E0,3.664629550E0
1.253704429E1,7.339506948E-1,-4.692139131E-1,-3.823537000E0,3.921515078E0
1.254699429E1,4.332693243E-1,-7.641284671E-1,-3.771693832E0,3.872633339E0
1.255694429E1,2.540007091E-1,-1.226979733E0,-3.602836769E0,3.814502380E0
1.256689429E1,4.693267643E-1,-1.465764817E0,-3.459644889E0,3.786538904E0
1.257684429E1,4.147190326E-1,-1.680951709E0,-4.128468711E0,4.476811859E0
1.258679429E1,1.674601632E-1,-1.896683561E0,-5.143330756E0,5.484460110E0
1.259674429E1,1.345175350E-1,-1.962229679E0,-5.990889342E0,6.305489306E0
1.260669329E1,5.365814388E-2,-2.088120816E0,-6.494390743E0,6.822040667E0
1.261664329E1,1.855888706E-1,-2.487692637E0,-6.414758683E0,6.882745589E0
1.262659329E1,1.318441880E-1,-3.061499789E0,-6.312140048E0,7.016642775E0
1.263654329E1,2.223810133E-1,-3.384913965E0,-5.972648953E0,6.868743072E0
1.264649329E1,4.275060162E-1,-3.656335868E0,-5.755903194E0,6.832420871E0
1.265644329E1,9.210361603E-1,-4.536842346E0,-5.206861339E0,6.967255635E0
1.266639329E1,6.918875796E-1,-3.450692802E0,-4.225546817E0,5.499203137E0
1.267634329E1,1.078454900E0,-5.055410267E0,-4.632658622E0,6.941308511E0
1.268629329E1,1.320014781E0,-7.891701037E0,-6.131266372E0,1.008036763E1
1.269624229E1,9.844147155E-1,-9.183635734E0,-6.393791152E0,1.123337896E1
1.270619229E1,7.435348660E-1,-9.500112773E0,-5.407578710E0,1.095659136E1
1.271614229E1,4.824794912E-1,-9.401445102E0,-4.072588041E0,1.025699419E1
1.272609229E1,1.678665447E-1,-1.020212130E1,-2.814230687E0,1.058448641E1
1.273604229E1,-1.277907227E0,-8.860109877E0,-1.355385465E0,9.053820391E0
1.274599229E1,-2.391124993E0,-7.835577707E0,2.371952266E-2,8.192332962E0
1.275594229E1,-3.404533128E0,-7.002336613E0,4.909042180E0,9.204469511E0
1.276589229E1,-3.568089105E0,-5.444313843E0,5.877745135E0,8.770387731E0
1.277584229E1,-2.768672984E0,-5.581069107E0,7.341328940E0,9.628550934E0
1.278579229E1,-2.862289245E0,-4.618960642E0,1.055075335E1,1.186785125E1
1.279574129E1,-2.149003195E0,-3.014297556E0,1.148751004E1,1.206926225E1
1.280569129E1,-1.416667209E0,-2.475347995E0,1.181795023E1,1.215723000E1
1.281564129E1,-6.079627857E-1,-2.386037039E0,1.150813901E1,1.176860464E1
1.282559129E1,-1.465803409E-1,-2.994423455E0,1.014084365E1,1.057472305E1
1.283554129E1,-4.410788655E-2,-3.452689626E0,8.379622532E0,9.063171903E0
1.284549129E1,-1.187616277E-1,-3.811183587E0,6.721739259E0,7.727936550E0
1.285544129E1,-4.490246469E-1,-4.028427529E0,5.455736378E0,6.796683818E0
1.286539129E1,-9.663716698E-1,-3.826768171E0,4.520846702E0,6.001340163E0
1.287534129E1,-1.248525845E0,-3.388068538E0,4.281894388E0,5.601111028E0
1.288529029E1,-1.153860886E0,-3.120643791E0,4.610351202E0,5.685521156E0
1.289524029E1,-1.036078374E0,-2.995699902E0,5.032065843E0,5.947214722E0
1.290519029E1,-8.899000293E-1,-2.778168277E0,5.727175823E0,6.427338792E0
1.291514029E1,-7.144014063E-1,-2.782381781E0,6.258989443E0,6.886723937E0
1.292509029E1,-5.426160577E-1,-3.176244965E0,6.648796413E0,7.388467906E0
1.293504029E1,-1.449247018E-1,-4.200671884E0,6.785435318E0,7.981777991E0
1.294499029E1,3.559901834E-1,-5.513636093E0,6.292259515E0,8.373735234E0
1.295494029E1,-1.210575369E-1,-5.007177170E0,5.667878040E0,7.563816472E0
1.296489029E1,-1.069113681E0,-4.404615165E0,5.633527987E0,7.230510106E0
1.297484029E1,-1.705760567E0,-3.823446368E0,5.886772066E0,7.223741870E0
1.298478929E1,-1.484370365E0,-4.916628358E0,5.459211379E0,7.495303774E0
1.299473929E1,-1.204876965E0,-7.215607372E0,4.264955589E0,8.467972864E0
1.300468929E1,-1.583425706E0,-7.797444506E0,3.146187937E0,8.556043263E0
1.301463929E1,-2.053777488E0,-7.222408853E0,1.750943026E0,7.710187617E0
1.302458929E1,-2.241026383E0,-6.479050573E0,1.592685065E-1,6.857525941E0
1.303453929E1,-1.478331068E0,-6.302089269E0,-6.075531882E-1,6.501608476E0
1.304448929E1,-4.172438604E-1,-5.703941912E0,-1.368166894E0,5.880554942E0
1.305443929E1,6.130454779E-2,-4.616846289E0,-1.289021029E0,4.793808832E0
1.306438929E1,3.922078371E-2,-3.995228208E0,-1.035408576E0,4.127403254E0
1.307433829E1,-2.993254012E-1,-4.015435016E0,-9.395668638E-1,4.134743034E0
1.308428829E1,-5.142047292E-1,-4.233115745E0,-2.100346760E0,4.753433699E0
1.309423829E1,-3.860793704E-1,-3.916163912E0,-2.317342195E0,4.566779162E0
1.310418829E1,-2.877970308E-1,-3.369624665E0,-3.426919193E0,4.814662259E0
1.311413829E1,-8.636337519E-3,-3.207690413E0,-3.612861820E0,4.831368637E0
1.312408829E1,1.260741556E-1,-2.832149480E0,-4.232202410E0,5.093967276E0
1.313403829E1,3.156362092E-1,-2.445620458E0,-4.707419075E0,5.314177264E0
1.314398829E1,2.971057981E-1,-1.533375002E0,-4.545403254E0,4.806266898E0
1.315393829E1,2.595427001E-1,-1.209216476E0,-5.311720626E0,5.453800777E0
1.316388829E1,-1.406138420E-2,-1.018553976E0,-6.525602011E0,6.604629553E0
1.317383729E1,-1.895141065E-1,-1.389522972E0,-8.211669449E0,8.330558494E0
1.318378729E1,-5.725663733E-1,-1.255778147E0,-8.160519176E0,8.276405272E0
1.319373729E1,-1.017397982E0,-1.021981030E0,-8.030710988E0,8.159158220E0
1.320368729E1,-1.142065882E0,-1.255799489E0,-6.951712589E0,7.155952401E0
1.321363729E1,-1.072454195E0,-1.543333687E0,-5.144772094E0,5.477291007E0
1.322358729E1,-7.629160470E-1,-2.042648336E0,-3.359791403E0,4.005327875E0
1.323353729E1,-2.728269893E-1,-2.138560068E0,-2.024569768E0,2.957491585E0
1.324348729E1,2.143039620E-1,-1.842358980E0,-1.410947755E0,2.330447675E0
1.325343729E1,7.418456054E-1,-1.684748890E0,-1.554247808E0,2.409232237E0
1.326338729E1,1.079688370E0,-1.422321174E0,-2.289230536E0,2.903325842E0
1.327333629E1,1.202539541E0,-1.208938880E0,-2.807348222E0,3.284636753E0
1.328328629E1,1.121876031E0,-1.105957864E0,-2.699570589E0,3.125608739E0
1.329323629E1,8.822770143E-1,-9.691086052E-1,-2.158781494E0,2.525454762E0
1.330318629E1,5.819423836E-1,-9.106424421E-1,-1.313558285E0,1.700988526E0
1.331313629E1,4.320484257E-1,-7.678160137E-1,-5.173265576E-1,1.021681966E0
1.332308629E1,4.283570784E-1,-5.062529545E-1,-8.737435877E-2,6.688917096E-1
1.333303629E1,2.425682330E-1,-1.626144294E-1,-3.055561942E-1,4.226669944E-1
1.334298629E1,1.373855942E-1,-1.668766111E-2,-6.413758224E-1,6.561373523E-1
1.335293629E1,2.018511468E-1,-4.544236735E-2,-7.478851944E-1,7.759775501E-1
1.336288529E1,3.049551004E-1,-4.579173848E-2,-4.083864981E-1,5.117362880E-1
1.337283529E1,3.077500695E-1,5.310485110E-2,9.701758683E-2,3.270208596E-1
1.338278529E1,3.125763613E-1,4.969870180E-2,5.408434743E-1,6.266463167E-1
1.339273529E1,2.605419892E-1,1.461251351E-1,6.669135368E-1,7.307587487E-1
1.340268529E1,2.303978384E-1,2.182480551E-1,6.069006389E-1,6.848676975E-1
1.341263529E1,1.648137134E-1,3.145280157E-1,3.923885161E-1,5.292071242E-1
1.342258512E1,1.345263058E-1,2.724961831E-1,5.309271812E-2,3.084968938E-1
1.343253513E1,3.664274633E-2,1.345765918E-1,-4.457396811E-1,4.670518315E-1
1.344248512E1,-1.163578373E-1,7.400396928E-2,-6.156030500E-1,6.308588185E-1
1.345243512E1,-2.504988116E-1,-4.019975379E-2,-5.585272086E-1,6.134478931E-1
1.346238512E1,-2.532505113E-1,-2.049207889E-1,-2.244313395E-1,3.955979996E-1
1.347233412E1,-1.762678242E-1,-3.006853174E-1,2.480570143E-1,4.278016927E-1
1.348228412E1,-1.782669872E-1,-2.416413032E-1,5.953594047E-1,6.668001641E-1
1.349223412E1,-2.242372119E-1,-2.018697117E-1,8.411611480E-1,8.936362708E-1
1.350218412E1,-2.613512439E-1,-1.860901232E-1,9.030457395E-1,9.583452480E-1
1.351213412E1,-2.855084306E-1,-2.575894377E-1,8.732307869E-1,9.541485155E-1
1.352208412E1,-2.964678669E-1,-2.643422408E-1,7.339080101E-1,8.345004396E-1
1.353203412E1,-2.114049125E-1,-1.940511073E-1,6.962536955E-1,7.530717614E-1
1.354198412E1,-2.042958677E-2,-1.490635072E-1,6.352093488E-1,6.527849676E-1
1.355193412E1,1.439239508E-1,6.148741946E-2,4.451596373E-1,4.718706487E-1
1.356188312E1,1.837130839E-1,2.196174730E-1,2.526108259E-1,3.818305396E-1
1.357183312E1,8.698785782E-2,3.541385163E-1,2.890728933E-1,4.653430066E-1
1.358178313E1,1.115409011E-1,4.648887277E-2,5.385051727E-1,5.518971000E-1
1.359173312E1,-3.427403927E-2,1.887118685E-1,9.313988882E-1,9.509420424E-1
1.360168312E1,1.409091264E-1,-7.841306224E-2,1.515275531E0,1.523831987E0
1.361163312E1,4.148371464E-1,-1.689693296E-1,1.950977882E0,2.001738041E0
1.362158313E1,2.972601646E-1,3.462976925E-1,1.753576466E0,1.811992307E0
1.363153312E1,2.974811894E-1,4.338281719E-1,4.386867696E-1,6.849438098E-1
1.364148312E1,2.739771366E-1,1.441540387E-1,-2.126158708E-1,3.755653962E-1
1.365143312E1,7.981917143E-2,5.655970770E-1,-7.236935091E-1,9.219563161E-1
1.366138212E1,8.038459718E-2,1.466553314E-1,-1.526936633E0,1.536068016E0
1.367133212E1,8.925423861E-2,-1.220951253E-1,-1.008419582E0,1.019697795E0
1.368128212E1,-1.276172358E-1,-3.075457093E-1,-1.235165834E0,1.279259614E0
1.369123212E1,-8.551319003E-2,-3.240703793E-1,-1.440183833E0,1.478669534E0
1.370118212E1,-2.060441852E-1,-3.855158450E-1,-1.634240642E0,1.691691209E0
1.371113212E1,-3.123231769E-1,-2.503013219E-1,-1.777059469E0,1.821575382E0
1.372108212E1,-4.437510431E-1,-2.018084621E-1,-1.774872025E0,1.840601084E0
1.373103212E1,-5.360873491E-1,-1.345282061E-1,-1.554869952E0,1.650184247E0
1.374098212E1,-5.572554392E-1,-1.403738138E-1,-1.100602106E0,1.241597128E0
1.375093212E1,-5.596165448E-1,-1.072423205E-1,-7.407282025E-1,9.345318948E-1
1.376088112E1,-4.880612433E-1,-1.521270096E-1,-4.306246287E-1,6.684190116E-1
1.377083113E1,-3.422427946E-1,-2.151462534E-1,-1.940544695E-1,4.484140698E-1
1.378078112E1,-2.462800455E-1,-1.849124940E-1,-2.068101704E-2,3.086651838E-1
1.379073112E1,-2.068206954E-1,-1.829066066E-1,1.900157976E-1,3.351650789E-1
1.380068112E1,-7.492680609E-2,-2.327370170E-1,3.901472783E-1,4.604296299E-1
1.381063113E1,2.787777007E-2,-2.528058305E-1,3.978737891E-1,4.722197688E-1
1.382058112E1,-1.005253315E-2,-7.674382836E-2,2.443662518E-1,2.563309065E-1
1.383053112E1,-9.231876433E-2,9.912740842E-2,2.938518226E-2,1.386091133E-1
1.384048112E1,-1.103854913E-1,1.257986055E-1,-1.896877688E-1,2.529657990E-1
1.385043112E1,-7.368076444E-2,7.177223325E-2,-3.060508686E-1,3.228734159E-1
1.386038012E1,-1.350964093E-1,6.802036732E-2,-4.845119834E-1,5.075723320E-1
1.387033012E1,-2.421039641E-1,-2.985442132E-2,-6.723947167E-1,7.152763599E-1
1.388028012E1,-2.998808867E-1,-1.047294796E-1,-5.771330488E-1,6.587711029E-1
1.389023012E1,-7.848951459E-2,-3.089706758E-1,-4.221689701E-4,3.187846618E-1
1.390018012E1,1.204526424E-1,-3.678224628E-1,3.060824436E-1,4.934457067E-1
1.391013012E1,1.163695318E-1,-2.442384902E-1,1.480234337E-1,3.083913827E-1
1.392008012E1,3.230879009E-2,-2.208493352E-1,-1.842913735E-1,2.894505089E-1
1.393003012E1,-6.402057946E-2,-2.038859779E-1,-4.184600812E-1,4.698690947E-1
1.393998012E1,-1.560510761E-1,-2.468989733E-1,-3.419247061E-1,4.496927240E-1
1.394993013E1,-1.861841172E-1,-1.974818149E-1,-2.320292115E-1,3.570730286E-1
1.395988012E1,-2.361058903E-1,-3.147526950E-2,-2.920941496E-1,3.769027411E-1
1.396982912E1,-3.177967554E-1,9.310872316E-2,-4.862217093E-1,5.882818735E-1
1.397977912E1,-3.486308777E-1,1.115157580E-1,-6.490491235E-1,7.451469774E-1
1.398972912E1,-3.507931781E-1,6.336115971E-2,-6.713796401E-1,7.601454542E-1
1.399967913E1,-3.562749428E-1,2.949671790E-2,-4.090279377E-1,5.432363620E-1
1.400962912E1,-2.875748366E-1,-8.964600205E-2,-3.010205090E-2,3.027240093E-1
1.401957912E1,-1.350350136E-1,-1.933818935E-1,3.586243540E-1,4.292347131E-1
1.402952912E1,5.901711702E-2,-2.301418765E-1,5.872785527E-1,6.335174834E-1
1.403947913E1,1.875780934E-1,-2.575050916E-1,5.226732516E-1,6.121125234E-1
1.404942912E1,2.027042556E-1,-1.720087123E-1,4.427576011E-1,5.164400311E-1
1.405937912E1,2.086444420E-1,-8.852728352E-2,3.612398136E-1,4.264549050E-1
1.406932812E1,1.099370098E-1,-1.710047454E-2,2.411374193E-1,2.655669922E-1
1.407927812E1,-4.124392033E-2,1.718935221E-2,1.923412353E-1,1.974631246E-1
1.408922812E1,-1.509406096E-1,3.528648466E-2,1.531157738E-1,2.178821787E-1
1.409917812E1,-2.493609434E-1,9.499532729E-2,4.049372256E-2,2.698976359E-1
1.410912812E1,-3.467890048E-1,1.397192180E-1,-2.538714856E-1,4.519234503E-1
1.411907812E1,-3.971709538E-1,9.554803535E-2,-6.604400843E-1,7.765663517E-1
1.412902812E1,-4.071468884E-1,-2.021630958E-2,-8.532508510E-1,9.456290513E-1
1.413897813E1,-3.722355026E-1,-1.834892817E-1,-8.100358343E-1,9.101569308E-1
1.414892812E1,-2.938342810E-1,-3.207892142E-1,-6.040337491E-1,7.443796576E-1
1.415887812E1,-1.961840254E-1,-4.336290012E-1,-3.507271045E-1,5.912121314E-1
1.416882712E1,-9.683515370E-2,-3.994417199E-1,-2.102442402E-1,4.616637035E-1
1.417877712E1,2.720124722E-3,-3.414059850E-1,-2.355533284E-1,4.147900869E-1
1.418872713E1,7.039521396E-2,-2.845451749E-1,-3.552364773E-1,4.605587883E-1
1.419867712E1,9.002314746E-2,-1.958045411E-1,-6.165976614E-1,6.531739902E-1
1.420862712E1,9.990961969E-2,-1.271110862E-1,-7.346073371E-1,7.521882079E-1
1.421857712E1,5.820786238E-2,-2.955380134E-2,-7.133421832E-1,7.163230087E-1
1.422852713E1,8.163297772E-3,-2.433611155E-3,-4.900288314E-1,4.901028642E-1
1.423847712E1,5.767868936E-2,-7.018105969E-2,-1.479515129E-1,1.736141196E-1
1.424842712E1,1.764496726E-1,-2.335420324E-1,2.527125674E-1,3.867040336E-1
1.425837712E1,2.789010769E-1,-3.099636061E-1,5.839503175E-1,7.175383064E-1
1.426832712E1,3.289561665E-1,-2.431457186E-1,7.581879884E-1,8.614992895E-1
1.427827612E1,3.302776372E-1,-1.756640992E-1,6.716924661E-1,7.688380600E-1
1.428822612E1,3.088867682E-1,-7.471045911E-2,4.875689077E-1,5.819932371E-1
1.429817612E1,2.496240681E-1,3.874686688E-2,3.483449489E-1,4.302995451E-1
1.430812612E1,1.585425746E-1,1.263236855E-1,2.221164268E-1,3.007143637E-1
1.431807612E1,1.054638898E-1,2.039327556E-1,1.411207956E-1,2.694926341E-1
1.432802612E1,9.281402349E-2,1.898568995E-1,3.449330986E-2,2.141258361E-1
1.433797612E1,5.048369050E-2,1.314945245E-1,-1.969657981E-1,2.421465230E-1
1.434792612E1,1.142078161E-2,3.232121542E-2,-4.269812286E-1,4.283550686E-1
1.435787612E1,-1.430345893E-2,-1.209155957E-1,-4.704833436E-1,4.859832784E-1
1.436782613E1,-9.719417274E-2,-1.957927005E-1,-4.709160376E-1,5.191756959E-1
1.437777513E1,-1.645529276E-1,-2.814282435E-1,-3.155736440E-1,4.537248583E-1
1.438772512E1,-2.310772848E-1,-2.800044465E-1,-9.786660254E-2,3.760014275E-1
1.439767512E1,-2.363175595E-1,-2.323620643E-1,-1.067929620E-1,3.481994465E-1
1.440762512E1,-1.117367828E-1,-1.472384450E-1,-3.053872097E-1,3.569672480E-1
1.441757513E1,9.709126174E-2,-2.451182038E-2,-7.414386392E-1,7.481703002E-1
1.442752487E1,3.654714435E-1,4.454270013E-2,-1.217327734E0,1.271786240E0
1.443747487E1,6.180717444E-1,-1.027180374E-2,-1.642447209E0,1.754921943E0
1.444742487E1,7.800776249E-1,-4.104862332E-2,-1.860678161E0,2.018001315E0
1.445737487E1,8.383556539E-1,-1.791867542E-1,-1.811758016E0,2.004349072E0
1.446732487E1,7.722037643E-1,-3.846640518E-1,-1.438874642E0,1.677684512E0
1.447727487E1,6.848381764E-1,-4.861214295E-1,-8.796913755E-1,1.216213093E0
1.448722387E1,5.834474570E-1,-5.280312015E-1,-2.994563788E-1,8.419631866E-1
1.449717387E1,5.177721155E-1,-4.759553142E-1,2.101284653E-1,7.340132128E-1
1.450712387E1,6.129694641E-1,-3.522979590E-1,4.231741065E-1,8.239670747E-1
1.451707388E1,7.126943117E-1,-2.225853735E-1,1.024385405E-1,7.536385639E-1
1.452702387E1,7.128574491E-1,-1.207735084E-1,-4.188746488E-1,8.355883882E-1
1.453697387E1,6.561833113E-1,-1.589233746E-1,-1.008357602E0,1.213514825E0
1.454692387E1,5.241935277E-1,-1.862772341E-1,-1.422200137E0,1.527131720E0
1.455687388E1,3.123910046E-1,-2.329513174E-1,-1.829124831E0,1.870174351E0
1.456682387E1,1.054212052E-1,-3.214359163E-1,-2.343639463E0,2.367927492E0
1.457677387E1,-1.620146513E-1,-4.275618571E-1,-2.698878863E0,2.737335385E0
1.458672387E1,-2.766177392E-1,-5.981941348E-1,-2.889024469E0,2.963244165E0
1.459667287E1,-3.510785222E-2,-1.217681490E0,-3.136203232E0,3.364483836E0
1.460662287E1,-5.500528389E-1,-9.670864919E-1,-3.868602076E0,4.025406368E0
1.461657287E1,-6.420008898E-1,-1.116777259E0,-4.743639652E0,4.915432203E0
1.462652287E1,-5.600784749E-1,-1.628036746E0,-4.806391386E0,5.105447061E0
1.463647287E1,-6.813163984E-1,-1.732932579E0,-4.273970826E0,4.661981765E0
1.464642287E1,-8.875184584E-1,-1.804691363E0,-3.790641149E0,4.291102452E0
1.465637287E1,-8.794843841E-1,-2.234626020E0,-3.810466134E0,4.504075753E0
1.466632287E1,-7.292881250E-1,-2.542046599E0,-3.933937109E0,4.740223967E0
1.467627287E1,-6.914619023E-1,-2.757324123E0,-4.133775644E0,5.016877212E0
1.468622287E1,-5.271545577E-1,-2.982431108E0,-4.366040499E0,5.313670754E0
1.469617288E1,-4.078649265E-1,-3.197211910E0,-4.366301869E0,5.427071937E0
1.470612188E1,1.911203367E-1,-3.551190652E0,-3.700996901E0,5.132724432E0
1.471607187E1,1.090798080E-2,-2.397664812E0,-2.421842464E0,3.407966615E0
1.472602187E1,-6.580573440E-2,-2.512049798E0,-1.999281145E0,3.211206889E0
1.473597187E1,8.127723312E-1,-3.722773102E0,-1.443078790E0,4.074569281E0
1.474592188E1,1.575398356E0,-4.461154817E0,-1.666408514E0,5.016044220E0
1.475587187E1,1.760932848E0,-4.454010104E0,-1.095202788E0,4.913100818E0
1.476582187E1,2.144086856E0,-4.903853946E0,-1.519730524E0,5.563674401E0
1.477577187E1,1.309415533E0,-4.103647281E0,-2.601276263E0,5.032010358E0
1.478572187E1,7.894027644E-1,-4.107538603E0,-3.219097162E0,5.278031511E0
1.479567187E1,7.079522198E-1,-4.464799971E0,-3.028015709E0,5.441003056E0
1.480562187E1,6.850486761E-1,-4.159753069E0,-2.318043276E0,4.811045823E0
1.481557087E1,8.940878052E-1,-4.303665326E0,-1.824143003E0,4.759036240E0
1.482552087E1,9.501991484E-1,-4.316042712E0,-1.567093556E0,4.689017522E0
1.483547087E1,9.662044394E-1,-4.604242031E0,-1.678984120E0,4.995155991E0
1.484542087E1,4.237117580E-1,-5.208663450E0,-1.904714127E0,5.562161675E0
1.485537087E1,-4.584538668E-1,-5.213251761E0,-1.253431951E0,5.381381377E0
1.486532087E1,-1.231139149E0,-4.887162484E0,-3.220641996E-1,5.050127335E0
1.487527087E1,-2.150897108E0,-4.857006054E0,5.988373286E-1,5.345603083E0
1.488522088E1,-2.601801343E0,-4.651050162E0,1.806813903E0,5.627274146E0
1.489517087E1,-2.726921525E0,-4.513233043E0,2.803627639E0,5.972076811E0
1.490512087E1,-2.432377100E0,-4.203039422E0,3.529658865E0,6.003373255E0
1.491507087E1,-1.853585196E0,-3.960633157E0,4.553399321E0,6.313148063E0
1.492501987E1,-1.417563002E0,-2.847160744E0,5.125100892E0,6.031788153E0
1.493496988E1,-1.084182540E0,-3.002489104E0,5.967970596E0,6.768091728E0
1.494491987E1,-1.243769135E0,-2.102508475E0,7.108395165E0,7.516434352E0
1.495486987E1,-1.472113139E0,-1.756115912E0,7.979696370E0,8.302205391E0
1.496481987E1,-1.455456468E0,-1.898976254E0,8.242728689E0,8.582950575E0
1.497476987E1,-1.498085886E0,-2.003358409E0,7.898253427E0,8.284932917E0
1.498471987E1,-1.397766084E0,-2.024531177E0,6.881140205E0,7.307706003E0
1.499466987E1,-1.152983511E0,-2.102407903E0,5.620088162E0,6.110227566E0
1.500461987E1,-1.045470172E0,-2.090984198E0,4.631840889E0,5.188368994E0
1.501456987E1,-1.026773700E0,-2.062931596E0,4.050156952E0,4.659798530E0
1.502451987E1,-1.082611393E0,-2.007067298E0,3.738081697E0,4.378769387E0
1.503446987E1,-1.117157620E0,-1.776085907E0,3.752317328E0,4.299117076E0
1.504441887E1,-8.541136077E-1,-1.593905379E0,4.161159617E0,4.537101913E0
1.505436887E1,-6.078347316E-1,-1.453941162E0,4.646174753E0,4.906154074E0
1.506431887E1,-3.108315521E-1,-1.249090979E0,5.259132523E0,5.414362328E0
1.507426888E1,1.394853294E-3,-1.130908810E0,5.661278872E0,5.773130447E0
1.508421887E1,4.590134454E-1,-1.173164883E0,6.116568811E0,6.244951818E0
1.509416887E1,6.264762399E-1,-1.338363343E0,6.309514648E0,6.480251848E0
1.510411887E1,5.735507521E-1,-1.547839844E0,6.388729218E0,6.598532387E0
1.511406888E1,4.842561677E-1,-2.204569870E0,6.290866708E0,6.683534715E0
1.512401887E1,4.920926061E-1,-3.755035699E0,5.364460173E0,6.566573016E0
1.513396887E1,-1.336860609E-1,-3.143345606E0,4.750664789E0,5.698009258E0
1.514391887E1,-6.134582913E-1,-2.650357499E0,4.940308996E0,5.639803093E0
1.515386787E1,-8.559376466E-1,-3.320833744E0,4.555547588E0,5.702068032E0
1.516381787E1,-3.432298046E-1,-4.817806320E0,4.188035467E0,6.392863639E0
1.517376787E1,-3.481584227E-1,-4.930353527E0,3.759031101E0,6.209663035E0
1.518371787E1,-1.980253136E-1,-5.220993474E0,3.420946262E0,6.245066870E0
1.519366787E1,-4.057149053E-2,-5.756831732E0,3.375818036E0,6.673747452E0
1.520361787E1,-3.786925828E-1,-5.706814649E0,3.322695790E0,6.614487797E0
1.521356787E1,-6.720590866E-1,-5.502403007E0,3.148525946E0,6.375054345E0
1.522351787E1,-6.454729664E-1,-5.684491149E0,3.320548692E0,6.614840784E0
1.523346787E1,-6.456132996E-1,-5.518440165E0,2.666853956E0,6.162962632E0
1.524341787E1,-6.517365038E-1,-5.100641989E0,2.153520754E0,5.574850743E0
1.525336787E1,-1.265995279E0,-5.033932275E0,6.740693593E-1,5.234270502E0
1.526331787E1,-1.974304179E0,-4.048722630E0,-2.074181639E0,4.959058519E0
1.527326687E1,-1.706771843E0,-4.239878635E0,-3.194436237E0,5.576205147E0
1.528321687E1,-1.304146022E0,-4.117718605E0,-2.993179168E0,5.255047563E0
1.529316687E1,-1.096543554E0,-3.656391709E0,-2.583426760E0,4.609306013E0
1.530311688E1,-9.828730971E-1,-3.174317430E0,-1.586523269E0,3.682307260E0
1.531306687E1,-9.436990911E-1,-2.412077613E0,-1.033583660E0,2.788724004E0
1.532301687E1,-9.073001736E-1,-1.945398761E0,-2.770094442E0,3.504453333E0
1.533296687E1,-6.277559030E-1,-2.534851601E0,-6.020936430E0,6.562867178E0
1.534291688E1,-6.003108269E-1,-3.207813790E0,-8.662822482E0,9.257155921E0
1.535286687E1,-6.951526648E-1,-3.073769587E0,-1.035783499E1,1.082663578E1
1.536281687E1,-8.478053391E-1,-2.718220868E0,-1.042090891E1,1.080290891E1
1.537276687E1,-1.000675530E0,-2.214277710E0,-9.106014531E0,9.424642059E0
1.538271687E1,-9.554730445E-1,-2.285851576E0,-7.178212089E0,7.593732611E0
1.539266587E1,-7.105150545E-1,-2.525216851E0,-5.153934097E0,5.783129642E0
1.540261587E1,-4.771251959E-1,-3.115444154E0,-4.128665763E0,5.194181525E0
1.541256587E1,-2.268526715E-1,-3.318942754E0,-3.689394856E0,4.967743708E0
1.542251587E1,4.121702313E-3,-3.222657239E0,-3.158958841E0,4.512710674E0
1.543246567E1,3.554937547E-1,-2.798815380E0,-2.555837258E0,3.806842186E0
1.544241567E1,5.794204795E-1,-2.217859130E0,-2.399299108E0,3.318322381E0
1.545236567E1,7.077738798E-1,-1.578602046E0,-2.560809145E0,3.090416115E0
1.546231567E1,7.516607416E-1,-9.772319958E-1,-2.837231587E0,3.093518922E0
1.547226567E1,8.132950723E-1,-5.818963003E-1,-2.907157854E0,3.074348544E0
1.548221567E1,1.060828176E0,-4.937320192E-1,-2.301576932E0,2.581934178E0
1.549216567E1,1.324352245E0,-5.753701133E-1,-1.156086336E0,1.849728427E0
1.550211567E1,1.436334026E0,-5.655730669E-1,6.697985530E-3,1.543688179E0
1.551206467E1,1.424329108E0,-5.990792206E-1,7.758670449E-1,1.729039905E0
1.552201467E1,1.479954255E0,-5.776048825E-1,1.436222345E0,2.141641105E0
1.553196467E1,1.512359524E0,-4.736266606E-1,1.715275449E0,2.335320837E0
1.554191467E1,1.459460934E0,-1.520917071E-1,1.571318754E0,2.149930401E0
1.555186467E1,1.365859290E0,3.711143721E-2,1.175696728E0,1.802556977E0
1.556181467E1,1.214933299E0,9.883661907E-2,7.970479989E-1,1.456405545E0
1.557176467E1,1.062512174E0,1.887384734E-1,6.928231341E-1,1.282403301E0
1.558171467E1,9.264457119E-1,2.387924666E-1,5.784790778E-1,1.118016790E0
1.559166467E1,7.915013301E-1,2.282065943E-1,1.501880729E-1,8.373225558E-1
1.560161467E1,7.690421748E-1,1.091216156E-1,-3.566696298E-1,8.547201989E-1
1.561156467E1,7.707419604E-1,-1.433141593E-2,-7.794151354E-1,1.096237434E0
1.562151467E1,7.329590070E-1,-1.344576376E-1,-9.721159744E-1,1.224874373E0
1.563146467E1,5.952500618E-1,-1.853357958E-1,-1.002081200E0,1.180185886E0
1.564141367E1,4.135297090E-1,-1.538288052E-1,-8.251339298E-1,9.356901857E-1
1.565136367E1,2.774188077E-1,-1.792591866E-1,-4.830320531E-1,5.851623836E-1
1.566131367E1,1.332527822E-1,-2.486067257E-1,-2.144413716E-1,3.543257116E-1
1.567126367E1,4.472418308E-2,-2.509498877E-1,-4.291213095E-2,2.584909083E-1
1.568121367E1,-2.533423126E-2,-2.503115911E-1,-2.762400091E-2,2.531023534E-1
1.569116367E1,-1.199597222E-1,-2.816131252E-1,-7.367199361E-2,3.148394033E-1
1.570111367E1,-2.315140718E-1,-3.750864588E-1,-1.595056111E-1,4.687543674E-1
1.571106367E1,-2.769785124E-1,-3.855216191E-1,-1.338749260E-1,4.932205500E-1
1.572101367E1,-2.899078757E-1,-4.001655322E-1,-1.327376425E-2,4.943229939E-1
1.573096367E1,-3.292146134E-1,-4.140450680E-1,1.429264158E-1,5.479448333E-1
1.574091367E1,-3.484075141E-1,-4.404741172E-1,2.771299553E-1,6.262637272E-1
1.575086367E1,-4.053512084E-1,-4.106226195E-1,2.272801030E-1,6.201425506E-1
1.576081267E1,-4.763644731E-1,-3.828353351E-1,6.865332842E-2,6.149790928E-1
1.577076267E1,-5.507550895E-1,-3.514488702E-1,-1.266401660E-1,6.654962124E-1
1.578071267E1,-6.105832154E-1,-2.385310961E-1,-2.878952640E-1,7.159557456E-1
1.579066267E1,-5.806928337E-1,-2.552621727E-1,-2.576142883E-1,6.846371780E-1
1.580061267E1,-4.931886667E-1,-3.109553669E-1,-1.204006022E-1,5.953357088E-1
1.581056267E1,-4.466769898E-1,-3.393872338E-1,4.806235850E-2,5.630399790E-1
1.582051267E1,-4.203814763E-1,-4.252470906E-1,1.546500832E-1,6.176344565E-1
1.583046267E1,-4.162182587E-1,-3.881346667E-1,1.400612801E-1,5.860915633E-1
1.584041267E1,-4.028784209E-1,-2.786172677E-1,2.380986214E-3,4.898410691E-1
1.585036267E1,-3.382374519E-1,-1.216641855E-1,-2.828426850E-1,4.573912246E-1
1.586031267E1,-2.474617678E-1,-1.952670358E-2,-5.733808905E-1,6.248073817E-1
1.587026267E1,-1.365646452E-1,2.714387141E-2,-7.190087199E-1,7.323661867E-1
1.588021167E1,-5.572747350E-2,4.560550466E-2,-6.279260570E-1,6.320415701E-1
1.589016167E1,-6.811421514E-2,3.634146854E-2,-3.374036390E-1,3.461234812E-1
