"Time (s)","Linear Acceleration x (m/s^2)","Linear Acceleration y (m/s^2)","Linear Acceleration z (m/s^2)","Absolute acceleration (m/s^2)"
6.001791684E-3,-2.452704598E-2,2.986279014E-2,1.005428731E-2,3.993057617E-2
1.595179166E-2,-2.603974351E-2,6.536403664E-3,-4.667773783E-2,5.384797140E-2
2.590079169E-2,-1.116188243E-2,-1.394783630E-2,1.971096396E-3,1.797261745E-2
3.585079167E-2,-3.224648070E-5,-4.266428210E-2,-2.826660991E-2,5.117854279E-2
4.580079167E-2,1.375830200E-2,-3.997209610E-2,-2.437353373E-2,4.879680817E-2
5.575079168E-2,1.328284114E-2,-4.271329821E-2,1.694055319E-2,4.783139194E-2
6.569979168E-2,2.964661676E-3,-5.944560830E-2,-4.308462381E-2,7.347689687E-2
7.564979169E-2,-6.287510991E-3,-5.167697931E-2,-7.758085728E-3,5.263298280E-2
8.559979167E-2,-2.691975860E-3,-4.312894388E-2,-1.688792825E-2,4.639563185E-2
9.554979167E-2,-2.090951983E-2,-2.823422410E-2,-3.110718727E-2,4.692586206E-2
1.054997917E-1,-2.387082393E-2,-1.520592413E-2,-1.449115455E-2,3.179669675E-2
1.154487917E-1,-2.678013805E-2,9.234946221E-3,-3.814255714E-2,4.751120596E-2
1.253987917E-1,-1.696588351E-2,2.576685898E-2,-2.302458107E-2,3.849550050E-2
1.353487917E-1,-6.645360589E-3,4.041911574E-2,-1.703820169E-2,4.436401753E-2
1.452987917E-1,-2.383841299E-3,5.403200023E-2,-2.571956277E-2,5.988852692E-2
1.552487917E-1,-9.367317134E-3,4.561820408E-2,-4.313490987E-3,4.676936367E-2
1.651977917E-1,-3.596503576E-3,2.457248524E-2,-1.209671974E-2,2.762376689E-2
1.751477917E-1,-3.939502160E-3,6.289795060E-3,-2.227496803E-2,2.347882876E-2
1.850977917E-1,-1.414080583E-3,-1.836153623E-2,-8.353332281E-3,2.022186432E-2
1.950477917E-1,5.254833321E-3,-2.470962529E-2,-2.272286475E-2,3.397804346E-2
2.049977917E-1,2.165000117E-3,-3.098447568E-2,-1.987819433E-2,3.687638226E-2
2.149467917E-1,1.014725348E-2,-2.220256305E-2,-2.451795995E-2,3.459842366E-2
2.248967917E-1,1.819831212E-2,-2.306060084E-2,-2.900803685E-2,4.128481654E-2
2.348467917E-1,1.994394353E-2,-1.252907337E-2,7.806032896E-4,2.356582069E-2
2.447967917E-1,1.300562830E-2,-3.379402854E-3,-1.089570165E-2,1.729979900E-2
2.547467917E-1,1.505699144E-3,2.636559787E-3,-1.089511693E-2,1.131026747E-2
2.646957917E-1,-9.287557458E-3,-8.865102979E-3,-9.996399879E-3,1.627196315E-2
2.746457917E-1,-2.009857498E-2,-2.253709688E-2,-2.047402561E-2,3.648368370E-2
2.845957917E-1,-3.317266138E-2,-2.309873108E-2,-1.044546604E-2,4.175026469E-2
2.945451250E-1,-3.130908980E-2,-9.624985198E-3,-1.313927829E-2,3.529220988E-2
3.044951250E-1,-2.935415091E-2,-1.274313628E-2,-3.050316989E-2,4.420969431E-2
3.144441250E-1,-2.159836295E-2,-4.708961479E-3,-2.017523289E-2,2.992830804E-2
3.243941250E-1,-1.506549274E-2,1.018583825E-2,-1.867776096E-2,2.606873850E-2
3.343441250E-1,-7.014447805E-3,1.778495965E-2,-1.448706150E-2,2.398712610E-2
3.442941250E-1,4.531688062E-3,1.887892345E-2,-1.074542820E-2,2.219040727E-2
3.542441250E-1,3.262814856E-3,1.079853965E-2,-1.388830662E-2,1.789244198E-2
3.641931250E-1,1.172152036E-2,-4.844717381E-3,-1.059457004E-2,1.652604733E-2
3.741431250E-1,3.127428973E-3,-1.368133346E-2,-2.182122409E-2,2.594466261E-2
3.840931250E-1,3.372751647E-3,-1.661739859E-2,-2.271877170E-2,2.834882673E-2
3.940431250E-1,-7.752448646E-4,-3.103338445E-2,-2.496468723E-2,3.983600837E-2
4.039931250E-1,6.929996652E-3,-2.362790409E-2,-2.915538669E-2,3.816201355E-2
4.139421250E-1,2.621375299E-3,-2.402316445E-2,-8.497758508E-3,2.561632172E-2
4.238921250E-1,8.945180140E-3,-1.877358449E-2,-1.313810885E-2,2.459824438E-2
4.338421250E-1,9.447442261E-3,2.414580295E-4,-9.395890832E-3,1.332648610E-2
4.437921250E-1,5.249785529E-3,1.100850266E-3,-1.343748629E-2,1.446852298E-2
4.537421250E-1,-1.336673498E-3,-1.789837279E-3,-1.328838229E-2,1.347484016E-2
4.636911250E-1,-1.671738598E-2,7.411053479E-3,-1.508464694E-2,2.370530069E-2
4.736411250E-1,-2.125831082E-2,-2.076638639E-3,-2.376659274E-2,3.195432893E-2
4.835911250E-1,-2.105127827E-2,3.458796166E-2,-4.636900485E-2,6.155946734E-2
4.935411250E-1,-2.067864161E-2,6.320451829E-2,1.455430448E-2,6.807529015E-2
5.034911250E-1,1.763378629E-3,4.570399370E-2,2.503368437E-2,5.214067412E-2
5.134401250E-1,-4.697694168E-3,2.459541957E-2,-5.340379000E-2,5.898277529E-2
5.233901250E-1,1.583531066E-3,-6.822558632E-3,-9.544410110E-3,1.183852361E-2
5.333401250E-1,-7.574725267E-3,-5.803697293E-3,-1.311530471E-3,9.632210407E-3
5.432901250E-1,2.236276763E-3,-1.041895486E-2,-3.573993623E-2,3.729475293E-2
5.532391250E-1,-2.694424381E-3,-2.190148170E-2,8.120028377E-3,2.351318107E-2
5.631891250E-1,-1.890737381E-2,-3.210990024E-2,-2.076931000E-2,4.266027093E-2
5.731391250E-1,-3.028800149E-2,-5.023179428E-2,-1.433152556E-2,6.038202395E-2
5.830891250E-1,-3.304360237E-2,-5.019421678E-2,-2.803739905E-3,6.015978734E-2
5.930391250E-1,-2.997576475E-2,-3.598014944E-2,-2.615459561E-2,5.363935587E-2
6.029881250E-1,-1.431123390E-2,-2.088745345E-2,4.151523113E-5,2.531992991E-2
6.129381250E-1,4.418087625E-3,-1.878205610E-3,-1.283171475E-2,1.370036707E-2
6.228881250E-1,2.722822207E-2,1.100692665E-2,-2.166276455E-2,3.649388824E-2
6.328381250E-1,4.500040920E-2,1.011387410E-2,-9.388874173E-3,4.706886695E-2
6.427881250E-1,3.594921630E-2,1.339318450E-2,-3.438689053E-2,5.151875177E-2
6.527371250E-1,3.945561794E-2,-9.122145209E-3,-9.688251615E-3,4.163918274E-2
6.626871250E-1,2.585127130E-2,-3.452170311E-2,-2.226210415E-2,4.853491007E-2
6.726371250E-1,-6.075257063E-4,-2.911125391E-2,-1.103545010E-2,3.113864722E-2
6.825871250E-1,-1.064515302E-2,-1.966095657E-2,-9.389458895E-3,2.424942132E-2
6.925371250E-1,-2.716019337E-2,-1.034404426E-3,-9.838525057E-3,2.890575499E-2
7.024861250E-1,-2.789742219E-2,1.743615040E-2,-4.450315833E-3,3.319775319E-2
7.124361250E-1,-2.983673806E-2,5.357063207E-2,-3.348992765E-2,6.986858244E-2
7.223861250E-1,-2.394587842E-2,5.242854295E-2,-1.607399583E-3,5.766056662E-2
7.323361250E-1,-3.377066252E-2,3.868294494E-2,-2.525821745E-2,5.722591568E-2
7.422861250E-1,-3.108318628E-2,2.089667195E-2,-2.316374481E-2,4.403855630E-2
7.522351250E-1,-2.975886959E-2,-5.743532642E-3,-1.148802459E-2,3.241223836E-2
7.621851250E-1,-2.779999753E-2,-5.629580459E-3,-3.813320160E-2,4.752549950E-2
7.721351250E-1,2.311386075E-4,-1.986822209E-2,1.186341584E-2,2.314174387E-2
7.820851250E-1,3.217229415E-2,-1.549833745E-2,-2.720475554E-2,4.489269093E-2
7.920351250E-1,5.108018872E-2,-1.019087690E-2,-3.139545500E-2,6.081705556E-2
8.019841250E-1,6.521978400E-2,-9.286844828E-3,1.536648273E-3,6.589557648E-2
8.119341250E-1,6.290102495E-2,-1.139242033E-2,-2.555759490E-2,6.884414890E-2
8.218841250E-1,5.858952111E-2,-1.700889024E-2,-3.852145672E-3,6.112997102E-2
8.318341250E-1,2.640946113E-2,-3.696230809E-2,-2.405895352E-2,5.140530226E-2
8.417841250E-1,-4.496591063E-3,-3.432278129E-2,-2.540556729E-2,4.293850831E-2
8.517331250E-1,-3.638879901E-2,-3.950099325E-2,-5.346693993E-3,5.397277367E-2
8.616831250E-1,-5.870861244E-2,-4.372262813E-2,-1.941743374E-2,7.573246410E-2
8.716331250E-1,-6.919669921E-2,-2.347772658E-2,-2.825023770E-2,7.834196038E-2
8.815831250E-1,-6.179900753E-2,-4.656229187E-3,-1.313226163E-2,6.335024939E-2
8.915331250E-1,-5.898094194E-2,5.426261807E-3,-2.750296354E-2,6.530397257E-2
9.014821250E-1,-3.937915189E-2,1.646099928E-2,-1.717385709E-2,4.600677633E-2
9.114321250E-1,-1.527153857E-2,2.854007916E-2,-1.837136686E-2,3.721912316E-2
9.213821250E-1,1.068596933E-3,2.970665121E-2,-2.884957731E-2,4.142372674E-2
9.313321250E-1,1.394068945E-2,1.371316652E-2,-2.181420743E-2,2.929596225E-2
9.412821250E-1,3.994604402E-2,4.770121984E-3,-2.061669767E-2,4.520496344E-2
9.512311250E-1,4.299751400E-2,1.294798983E-2,-6.545373201E-3,4.537927458E-2
9.611811250E-1,3.100054411E-2,7.972831575E-3,-2.705272794E-2,4.191002108E-2
9.711311250E-1,3.953536391E-2,1.194402062E-2,-2.151424527E-2,4.656787925E-2
9.810811250E-1,3.829462130E-2,1.319037748E-2,-1.642424405E-2,4.370606217E-2
9.910311250E-1,1.841109138E-2,1.426023750E-2,-1.896836758E-2,3.003533965E-2
1.000980125E0,6.155829867E-3,2.181413891E-2,-1.477649868E-2,2.705726910E-2
1.010930125E0,-7.794758733E-3,3.543092916E-3,-2.300879359E-2,2.455028215E-2
1.020880125E0,-2.929124766E-2,-5.608487085E-3,-1.477649868E-2,3.328328754E-2
1.030830125E0,-3.719809934E-2,-2.468053310E-2,-1.657334805E-2,4.761830713E-2
1.040780125E0,-4.961951314E-2,-3.808951193E-2,-2.555408657E-2,6.757157941E-2
1.050729125E0,-4.401577007E-2,-5.138310190E-2,-1.896836758E-2,7.026670722E-2
1.060679125E0,-5.287854558E-2,-3.817597307E-2,-2.106459439E-2,6.853657884E-2
1.070629125E0,-3.234088125E-2,-1.899057329E-2,-3.333906949E-2,5.018035500E-2
1.080579125E0,-3.318486745E-3,-1.095229630E-2,-7.592609525E-3,1.373364001E-2
1.090529125E0,1.512601599E-2,6.215117436E-3,-9.388289452E-3,1.885640537E-2
1.100478125E0,2.224794750E-2,1.888476610E-2,-1.073607266E-2,3.109451422E-2
1.110428125E0,2.693967568E-2,1.054365130E-2,-5.047316551E-3,2.936647941E-2
1.120378125E0,2.444161267E-2,3.756950260E-4,-2.630369961E-2,3.590846962E-2
1.130328125E0,1.141501662E-2,-2.952793655E-3,-1.358015835E-2,1.798450154E-2
1.140278125E0,1.452483086E-2,-2.392433280E-2,-1.747264981E-2,3.299451323E-2
1.150227125E0,1.010074070E-2,-2.464944921E-2,-2.256148160E-2,3.490903552E-2
1.160177125E0,-1.372501398E-3,-1.603769969E-2,-1.657334805E-2,2.310340748E-2
1.170127125E0,-4.740145868E-3,-9.576227185E-3,-2.480681241E-2,2.701020273E-2
1.180077125E0,-1.841639042E-2,-7.198253658E-3,-1.777144253E-2,2.658575674E-2
1.190027125E0,-1.376466998E-2,1.093401461E-2,-2.076521695E-2,2.720685668E-2
1.199976125E0,-2.243055421E-2,2.706903619E-2,-2.510618985E-2,4.319934318E-2
1.209926125E0,-1.985649568E-2,2.011517330E-2,-9.537978172E-3,2.983075000E-2
1.219876125E0,-2.339028330E-2,1.574693319E-2,-1.956770718E-2,3.432151544E-2
1.229826125E0,-1.874640636E-2,9.666897857E-3,-1.358191252E-2,2.508674975E-2
1.239776125E0,-1.060127150E-2,7.146405301E-3,-1.418125212E-2,1.909361092E-2
1.249725125E0,-7.534155641E-3,1.820683626E-3,-2.959860563E-2,3.059666396E-2
1.259675125E0,-5.329417298E-3,4.250836701E-3,-1.073841155E-2,1.271950407E-2
1.269625125E0,1.138538769E-2,3.208776077E-3,-1.837253630E-2,2.185116443E-2
1.279575125E0,1.570684094E-2,-5.989104279E-3,-1.971973479E-2,2.591220103E-2
1.289530750E0,1.551227027E-2,2.405873425E-3,-7.444674969E-3,1.737359897E-2
1.299479750E0,1.300758803E-2,-1.160874447E-2,-2.061669767E-2,2.700015773E-2
1.309429750E0,2.785238950E-3,-9.210358222E-3,-1.448062956E-2,1.738611190E-2
1.319379750E0,-5.396048147E-3,-1.389268289E-2,-1.492911100E-2,2.109507831E-2
1.329329750E0,-8.343524490E-3,-2.991890286E-2,-1.852047086E-2,3.616300582E-2
1.339279750E0,-8.863963229E-3,-2.526716643E-2,-1.178389370E-2,2.925507981E-2
1.349228750E0,-1.534588044E-2,-2.631047873E-2,-2.031673551E-2,3.661293595E-2
1.359178750E0,-2.043259260E-2,-2.363521997E-2,-1.882101774E-2,3.647389713E-2
1.369128750E0,-1.290005408E-2,-1.486487843E-2,-1.507938445E-2,2.479443166E-2
1.379078750E0,-1.215151912E-2,-8.625387694E-3,-1.971973479E-2,2.471689037E-2
1.389028750E0,-1.124200756E-2,-7.870882172E-3,-8.493080735E-3,1.613895723E-2
1.398977750E0,-3.361162283E-3,4.753439147E-3,-1.298374236E-2,1.422920100E-2
1.408927750E0,4.931226480E-3,6.826464389E-3,-1.522848845E-2,1.740185252E-2
1.418877750E0,3.194407001E-4,1.340915470E-2,-1.911922574E-2,2.335491951E-2
1.428827750E0,5.966809485E-3,1.419414797E-2,-2.510677457E-2,2.945210996E-2
1.438777750E0,3.417889411E-3,8.215404230E-3,-2.405778408E-2,2.565057133E-2
1.448726750E0,6.858048490E-3,1.887698884E-2,-1.178330898E-2,2.328561589E-2
1.458676750E0,1.109261120E-2,2.503884637E-2,-1.417832851E-2,3.083852866E-2
1.468626750E0,4.491255479E-4,1.783667782E-2,-2.166276455E-2,2.806464247E-2
1.478576750E0,-3.141434882E-3,1.936897494E-2,-1.432801723E-2,2.429645820E-2
1.488526750E0,-5.238095666E-3,9.485478855E-3,-1.163362026E-2,1.589820983E-2
1.498475750E0,-8.823763621E-3,7.754090892E-3,-2.196155727E-2,2.490571677E-2
1.508425750E0,-1.237062982E-2,5.049321963E-4,-1.462797940E-2,1.916416499E-2
1.518375750E0,-1.687197631E-2,-2.685336072E-3,-7.891402245E-3,1.881884279E-2
1.528325750E0,-1.042307760E-2,-8.500732365E-4,-5.346693993E-3,1.174522490E-2
1.538275750E0,-1.236208740E-2,-2.066091267E-2,-1.881926358E-2,3.055910992E-2
1.548225750E0,-1.642770669E-2,-3.070882058E-2,-2.061552823E-2,4.047099224E-2
1.558174750E0,-1.227410965E-2,-3.010558207E-2,-2.465712368E-2,4.080408788E-2
1.568124750E0,-8.761212118E-3,-1.684092212E-2,-1.642482877E-2,2.510279856E-2
1.578074750E0,-5.456119152E-3,-2.173960747E-2,-1.208327115E-2,2.546340925E-2
1.588024750E0,-2.111141779E-3,-3.430931214E-2,-1.777202725E-2,3.869665065E-2
1.597974750E0,-1.007054988E-3,-2.636436448E-2,-2.016704679E-2,3.320848762E-2
1.607923750E0,5.067644762E-3,-1.667983589E-2,-1.657393277E-2,2.405396425E-2
1.617873750E0,-4.914411167E-3,-1.630491060E-2,-1.283171475E-2,2.132262765E-2
1.627823750E0,-4.482347611E-4,-6.331118429E-3,-2.405719936E-2,2.488037009E-2
1.637773750E0,-1.274144836E-4,7.767861541E-3,-7.740544081E-3,1.096685598E-2
1.647723750E0,6.473735673E-4,1.357331528E-2,-1.612311244E-2,2.108574720E-2
1.657672750E0,-3.003321821E-3,1.258999862E-2,-1.327902675E-2,1.854347752E-2
1.667622750E0,9.711201936E-3,2.413848708E-2,-2.555350184E-2,3.646855437E-2
1.677572750E0,3.364734566E-3,2.909045518E-2,-2.675159633E-2,3.966388695E-2
1.687522750E0,-4.832586693E-3,1.829258248E-2,-1.806965053E-2,2.616265923E-2
1.697472750E0,-5.716644586E-3,1.367860628E-2,-9.537393451E-3,1.762799390E-2
1.707421750E0,-5.342436489E-3,2.244508546E-3,-3.423544765E-2,3.472240374E-2
1.717371750E0,-9.455235503E-3,-7.640421933E-3,-1.327961147E-2,1.800348873E-2
1.727321750E0,-1.717853487E-2,-1.543034986E-2,-2.360813320E-2,3.302335098E-2
1.737271750E0,-7.055446836E-3,-1.083820479E-2,-1.627280116E-2,2.078581417E-2
1.747221750E0,-9.868039791E-3,-1.572830661E-2,-1.223120570E-2,2.223421308E-2
1.757171750E0,-7.190307383E-3,-1.849812353E-2,-2.285968959E-2,3.027286743E-2
1.767120750E0,-3.065594668E-3,-5.534567772E-3,-2.300937831E-2,2.386337783E-2
1.777070750E0,-4.301358014E-4,-3.995566908E-4,-2.330817103E-2,2.331556346E-2
1.787020750E0,-2.376258192E-3,-4.886972650E-3,-1.941626430E-2,2.016235165E-2
1.796970750E0,-4.116261662E-3,-1.431639133E-2,-1.687214077E-2,2.250715008E-2
1.806920750E0,-2.405617610E-3,-1.671289093E-2,-1.896778286E-2,2.539457631E-2
1.816869750E0,9.836862255E-3,-1.451562835E-2,-1.507470667E-2,2.312388606E-2
1.826819750E0,3.594552982E-3,-1.800216087E-2,-1.971564174E-2,2.693891491E-2
1.836769750E0,-6.860008221E-3,-7.524409520E-3,-1.163362026E-2,1.546019314E-2
1.846719750E0,-5.482819914E-3,-4.086006889E-3,-9.688836336E-3,1.185876537E-2
1.856669750E0,1.873256033E-4,-8.358706695E-3,-1.028759122E-2,1.325660596E-2
1.866619750E0,4.956639027E-3,-4.141946014E-3,-1.642541349E-2,1.764987806E-2
1.876568750E0,-3.479997804E-3,-8.237265050E-4,-1.028759122E-2,1.089143898E-2
1.886518750E0,4.794214340E-4,-6.644401280E-4,-2.076521695E-2,2.078137533E-2
1.896468750E0,-1.087253205E-3,1.108461696E-2,-1.088634610E-2,1.557444651E-2
1.906418750E0,-8.780284091E-3,1.590644341E-2,-1.552669644E-2,2.389951115E-2
1.916368750E0,-5.827673161E-3,2.585545343E-2,-5.496967435E-3,2.706811589E-2
1.926317750E0,-5.504587088E-3,1.528372864E-2,-4.748523831E-3,1.692457736E-2
1.936267750E0,-6.975997793E-3,1.159789971E-2,-1.522731900E-2,2.037270397E-2
1.946217750E0,-1.080264412E-2,5.868674477E-3,-1.313167691E-2,1.798831284E-2
1.956167750E0,-8.395742867E-3,-5.682979699E-3,-1.702299893E-2,1.981330990E-2
1.966117750E0,-1.170722666E-2,6.021353044E-4,-1.313167691E-2,1.760291628E-2
1.976066750E0,-2.661419590E-3,9.723407999E-3,-6.395684481E-3,1.193870166E-2
1.986016750E0,-2.937038150E-3,-8.624129172E-3,-1.328136563E-2,1.610578996E-2
1.995966750E0,-5.927263121E-3,-1.310612047E-2,-1.747264981E-2,2.263175498E-2
2.005916750E0,-1.275646382E-2,-1.343273086E-2,-2.316023648E-2,2.965741360E-2
2.015866750E0,-9.053956624E-4,-2.170145210E-2,-2.121428311E-2,3.036146526E-2
2.025816750E0,-2.325638663E-3,-2.840432782E-2,-1.178389370E-2,3.083949716E-2
2.035765750E0,-4.849214712E-4,-2.580108346E-2,-2.884899259E-2,3.870652955E-2
2.045715750E0,-5.238648411E-4,-2.592007658E-2,-1.941977262E-2,3.239216531E-2
2.055665750E0,4.107225887E-3,-2.487374932E-2,-2.205569744E-3,2.530686167E-2
2.065615750E0,7.794461804E-3,-3.648801895E-3,-1.627630949E-2,1.841156269E-2
2.075565750E0,6.048793844E-3,-2.994493896E-3,-7.145882249E-3,9.829472711E-3
2.085514750E0,6.023568590E-3,-6.792141690E-3,-9.390628338E-3,1.306141140E-2
2.095464750E0,-3.032279243E-3,-1.742063243E-2,-2.615518034E-2,3.157161083E-2
2.105414750E0,-5.393549376E-3,-2.381776501E-2,-1.642482877E-2,2.943044861E-2
2.115364750E0,-9.881913224E-3,-2.886625558E-2,-1.193533659E-2,3.276225236E-2
2.125314750E0,-1.804832647E-2,-1.908383410E-2,-9.241524339E-3,2.784493821E-2
2.135264750E0,-1.512338474E-2,-1.678885906E-2,-2.076814055E-2,3.069036032E-2
2.145213750E0,-1.232480227E-2,-1.836693577E-2,-9.691175222E-3,2.414878791E-2
2.155163750E0,-9.889322743E-3,-6.367033124E-3,-1.822401702E-2,2.168991959E-2
2.165113750E0,-7.501406665E-3,-2.842557651E-3,-2.002028167E-2,2.156763580E-2
2.175063750E0,-6.362067559E-3,1.245281061E-2,-1.283463836E-2,1.898094669E-2
2.185013750E0,-1.238557676E-2,1.465138882E-2,-1.942094207E-2,2.729906037E-2
2.194963750E0,-5.529574798E-3,1.747998853E-2,-1.852222502E-2,2.606144693E-2
2.204912750E0,-7.415420618E-3,1.201012156E-2,-1.283405364E-2,1.907732727E-2
2.214862750E0,-6.934121680E-3,2.080450978E-2,-1.907946467E-3,2.201249487E-2
2.224812750E0,-3.168839137E-3,3.511419736E-2,-9.542655945E-3,3.652547988E-2
2.234762750E0,1.131094532E-2,3.888150816E-2,-2.376249969E-2,4.695067148E-2
2.244712750E0,2.096663069E-2,3.690869186E-2,-1.044078827E-2,4.371339837E-2
2.254661750E0,2.410513282E-2,4.253012504E-2,-1.777612031E-2,5.201787594E-2
2.264611750E0,2.917736856E-2,3.560589795E-2,-1.103954315E-2,4.733888801E-2
2.274561750E0,2.733159901E-2,1.420044287E-2,-9.392967224E-3,3.220088066E-2
2.284511750E0,2.067485919E-2,-9.685076759E-3,-2.391160369E-2,3.306078198E-2
2.294456250E0,1.384045081E-3,-9.623628461E-3,-1.567755461E-2,1.844764278E-2
2.304406250E0,-2.092214160E-2,-3.058198625E-2,-2.046759367E-2,4.233103215E-2
2.314355250E0,-3.195984379E-2,-4.999074281E-2,-2.510735929E-2,6.442736587E-2
2.324305250E0,-4.023741808E-2,-4.733221485E-2,-1.447887540E-2,6.378891918E-2
2.334255250E0,-3.829622928E-2,-5.389306490E-2,-2.720241666E-2,7.149150365E-2
2.344205250E0,-3.121234122E-2,-3.348488443E-2,-2.166393399E-2,5.064359550E-2
2.354155250E0,-2.604586938E-2,-2.859845310E-2,-1.373101652E-2,4.104631099E-2
2.364104250E0,-9.512350922E-3,-2.286679076E-2,-1.702475309E-2,3.005357146E-2
2.374054250E0,-2.485203696E-3,-1.814894426E-2,-5.947203040E-3,1.925953372E-2
2.384004250E0,9.056651825E-3,-9.375146921E-3,-1.088576138E-2,1.698281846E-2
2.393954250E0,1.050593904E-2,8.682423171E-3,-2.136338711E-2,2.534074853E-2
2.403904250E0,4.636869421E-3,1.822680130E-2,-5.197005272E-3,1.951219382E-2
2.413854250E0,1.108047366E-2,2.044909728E-2,-8.789534569E-3,2.486359576E-2
2.423803250E0,1.802978897E-2,3.268777646E-2,-1.298081875E-2,3.952297655E-2
2.433753250E0,9.578721388E-3,5.169570410E-2,-1.133482754E-2,5.378360383E-2
2.443703250E0,8.942580870E-3,5.194736735E-2,-9.689421058E-3,5.359462294E-2
2.453653250E0,2.158577316E-3,3.725111029E-2,-4.150938392E-3,3.754377396E-2
2.463603250E0,-1.140027981E-2,1.693142148E-2,-1.717444181E-2,2.667584797E-2
2.473553250E0,-2.716057252E-2,-8.962867968E-4,-1.897129118E-2,3.314226786E-2
2.483502250E0,-2.677069571E-2,-3.324000029E-2,-1.927125335E-2,4.682893309E-2
2.493452250E0,-3.091482301E-2,-5.993984420E-2,-2.421215057E-2,7.165709623E-2
2.503402250E0,-2.708959737E-2,-8.356052150E-2,-2.286553681E-2,9.076915673E-2
2.513352250E0,6.505447682E-3,-8.168221311E-2,-2.106927216E-2,8.460625873E-2
2.523302250E0,3.277463502E-2,-5.596055813E-2,-1.777670503E-2,6.724412248E-2
2.533252250E0,2.901218472E-2,-3.788296133E-2,-2.361456513E-2,5.323977186E-2
2.543201250E0,1.672098567E-2,-1.340696428E-2,-2.181946993E-2,3.058475635E-2
2.553151250E0,4.727633740E-3,4.897618694E-3,-1.208970308E-2,1.387436882E-2
2.563101250E0,-1.243180631E-2,1.420722655E-2,-2.122071505E-2,2.840270835E-2
2.573051250E0,-2.201455680E-2,2.496514861E-2,-1.463499606E-2,3.636045195E-2
2.583001250E0,-3.575521208E-2,4.601118266E-2,-5.354295373E-3,5.851608838E-2
2.592951250E0,-3.750336054E-2,6.132708241E-2,-1.059340060E-2,7.266177279E-2
2.602900250E0,-3.161484893E-2,5.822020092E-2,-1.717911959E-2,6.844130783E-2
2.612850250E0,-2.342088068E-2,5.467598881E-2,-1.298842013E-2,6.088267784E-2
2.622800250E0,-8.098197249E-3,5.008653208E-2,-1.747908175E-2,5.366339342E-2
2.632750250E0,3.593611945E-3,2.935566753E-2,-1.223997653E-2,3.200759735E-2
2.642700250E0,8.572045555E-3,-3.847833350E-3,-2.735795259E-2,2.892651650E-2
2.652650250E0,7.442902531E-3,-3.183209583E-2,-1.298783541E-2,3.517617079E-2
2.662599250E0,7.400930487E-3,-4.240807355E-2,-6.551220417E-3,4.354465482E-2
2.672549250E0,1.600514943E-2,-6.667813897E-2,-2.316549897E-2,7.237941260E-2
2.682499250E0,1.099341410E-2,-7.398791685E-2,-9.394136667E-3,7.538777618E-2
2.692449250E0,1.282443314E-2,-6.155283061E-2,-1.208794892E-2,6.402605369E-2
2.702399250E0,9.930399433E-3,-4.968686119E-2,-8.794797063E-3,5.142708880E-2
2.712349250E0,-3.471217845E-3,-2.197947122E-2,-1.612954438E-2,2.748288031E-2
2.722298250E0,-7.905526925E-4,2.479379321E-3,-1.508113861E-2,1.530402029E-2
2.732248250E0,-1.104287332E-2,1.464823909E-2,-1.567930877E-2,2.413206753E-2
2.742198250E0,-1.513501522E-2,4.249966471E-2,-1.522965789E-2,4.761546666E-2
2.752148250E0,-2.423591402E-2,4.616252504E-2,-1.987000823E-2,5.579583743E-2
2.762098250E0,-3.045080534E-2,4.899654713E-2,-1.103837371E-2,5.873464796E-2
2.772048250E0,-1.484133882E-2,5.205003623E-2,-1.463090301E-2,5.606723582E-2
2.781997250E0,-2.332407729E-2,3.970738169E-2,-1.867191374E-2,4.969234453E-2
2.791947250E0,-7.333618985E-3,3.128891919E-2,-1.418300629E-2,3.512742659E-2
2.801897250E0,-1.696304670E-3,2.397163358E-2,-1.822460175E-2,3.016045051E-2
2.811847250E0,6.240431769E-3,1.424701274E-2,-1.448238373E-2,2.125228927E-2
2.821797250E0,1.976111297E-2,-6.711365604E-3,-1.163829803E-2,2.389548065E-2
2.831747250E0,2.332332811E-2,-2.713117656E-2,-1.493028045E-2,3.876843626E-2
2.841696250E0,1.649412741E-2,-4.093304945E-2,-8.793042898E-3,4.499875976E-2
2.851646250E0,1.035343178E-2,-5.136340410E-2,-2.316257536E-2,5.728784974E-2
2.861596250E0,4.808800402E-3,-6.210725172E-2,-2.655220628E-3,6.234970308E-2
2.871546250E0,-1.325288330E-2,-6.071090008E-2,-1.762467742E-2,6.459165239E-2
2.881496250E0,-1.838069956E-2,-4.923141334E-2,-1.822343230E-2,5.562082039E-2
2.891446250E0,-1.247701717E-2,-2.279232556E-2,-1.073841155E-2,2.811546806E-2
2.901395250E0,-2.125213013E-2,-2.545507676E-3,-2.061786711E-2,2.971917039E-2
2.911345250E0,-2.035948870E-2,2.037887816E-2,-1.537876189E-2,3.265446022E-2
2.921295250E0,-1.317161614E-2,2.956773645E-2,-1.732471526E-2,3.671359787E-2
2.931245250E0,-1.088533654E-2,4.290041368E-2,-2.286319792E-2,4.981628112E-2
2.941195250E0,-8.052461059E-3,5.059406583E-2,-8.492496014E-3,5.192999244E-2
2.951145250E0,-4.282578402E-3,5.734611070E-2,-1.627630949E-2,5.976483197E-2
2.961095250E0,-6.094169151E-4,3.917497443E-2,-1.163595915E-2,4.087108459E-2
2.971044250E0,5.403900775E-3,2.987908926E-2,-7.294986248E-3,3.122785524E-2
2.980994250E0,1.755931194E-2,1.294194162E-2,-1.283288419E-2,2.530822407E-2
2.990944250E0,1.722274987E-2,6.676136130E-3,-1.447946012E-2,2.347016557E-2
3.000894250E0,1.431127501E-2,-5.982784261E-3,-2.166510344E-2,2.664550632E-2
3.010844250E0,3.915323010E-3,-3.111656109E-2,-9.091250896E-3,3.265303923E-2
3.020794250E0,1.034672576E-2,-4.590665454E-2,-9.839694500E-3,4.807593216E-2
3.030743250E0,-7.204157976E-3,-3.838468669E-2,-2.061786711E-2,4.416311253E-2
3.040693250E0,-1.138484408E-2,-4.297189132E-2,-1.463031828E-2,4.680004628E-2
3.050643250E0,-2.885586306E-2,-4.025120929E-2,-1.433035612E-2,5.155753862E-2
3.060593250E0,-2.027093536E-2,-3.438968851E-2,-1.163537443E-2,4.158056559E-2
3.070543250E0,-2.458470957E-2,-1.207229163E-2,-1.283229947E-2,3.024592666E-2
3.080493250E0,-1.821130390E-2,-5.220197705E-3,-1.986825407E-2,2.745267880E-2
3.090442250E0,7.477492467E-4,1.366981261E-2,-1.837078214E-2,2.291088261E-2
3.100392250E0,2.042094385E-4,4.297918207E-2,-1.148510098E-2,4.448774368E-2
3.110342250E0,3.783614477E-3,3.994834179E-2,-1.013848722E-2,4.138809821E-2
3.120292250E0,5.359562435E-3,3.680800783E-2,-9.989383221E-3,3.851418086E-2
3.130242250E0,6.128754518E-3,4.069618240E-2,-1.657568693E-2,4.436771677E-2
3.140192250E0,2.343098084E-3,2.559773969E-2,-1.926949918E-2,3.212550364E-2
3.150142250E0,-8.359234314E-5,5.053399026E-3,-2.405953825E-2,2.458465395E-2
3.160091250E0,-2.812387389E-3,-4.434793303E-4,-1.657510221E-2,1.681785391E-2
3.170041250E0,5.867891042E-3,-1.581493905E-2,-1.732354581E-2,2.417953023E-2
3.179991250E0,-1.636073780E-3,-2.974121374E-2,-1.343222380E-2,3.267477878E-2
3.189941250E0,-8.383326670E-3,-3.037391445E-2,-1.433094084E-2,3.461546924E-2
3.199891250E0,-8.999038478E-3,-4.301830817E-2,-1.852105558E-2,4.769263078E-2
3.209841250E0,-1.715684992E-2,-4.152766103E-2,-1.597576261E-2,4.768782990E-2
3.219790250E0,-1.985521660E-2,-3.150694268E-2,-1.253292203E-2,3.929365340E-2
3.229740250E0,-1.373227275E-2,-2.693782330E-2,-1.881984830E-2,3.561472068E-2
3.239690250E0,-1.355309671E-2,-1.723863328E-2,-1.822109342E-2,2.851079011E-2
3.249640250E0,-6.345503493E-3,-4.005593969E-3,-1.156579256E-3,7.592619654E-3
3.259590250E0,1.808073283E-3,8.061903398E-3,-1.747264981E-2,1.932762031E-2
3.269540250E0,-3.673243714E-3,1.687913915E-2,-1.477825284E-2,2.273312154E-2
3.279490250E0,-1.934464504E-3,3.349842895E-2,-1.298198819E-2,3.597803375E-2
3.289439250E0,2.743390244E-3,4.181032366E-2,-3.319113493E-2,5.345353864E-2
3.299389875E0,6.964878947E-3,2.660040698E-2,-1.478000700E-2,3.121761998E-2
3.309339875E0,3.243377432E-7,3.551583256E-2,-4.751447439E-3,3.583225663E-2
3.319289875E0,-1.670110971E-3,1.589881462E-2,-6.547712088E-3,1.727524560E-2
3.329239875E0,-1.658252086E-3,2.294445138E-3,-1.702592254E-2,1.725967313E-2
3.339189875E0,-4.584746975E-3,-1.853338955E-2,-1.178798676E-2,2.243798264E-2
3.349139875E0,-5.863980716E-3,-2.069557341E-2,-1.014199555E-2,2.378136040E-2
3.359088875E0,-1.442883146E-2,-4.067393557E-2,-1.927300751E-2,4.726530472E-2
3.369038875E0,-1.099682650E-2,-3.635450601E-2,-1.508055389E-2,4.086567515E-2
3.378988875E0,-5.665700720E-3,-3.888945672E-2,-1.747557342E-2,4.301029731E-2
3.388938875E0,-4.731000457E-3,-3.947902051E-2,-2.645631194E-2,4.775889307E-2
3.398888875E0,-3.610367873E-3,-3.676763006E-2,-9.691759944E-3,3.819454919E-2
3.408838875E0,5.895044049E-4,-2.457265426E-2,-8.793627620E-3,2.610537760E-2
3.418787875E0,1.126338188E-3,-1.175952498E-2,-2.181596160E-2,2.480909603E-2
3.428737875E0,6.895552897E-3,1.252395934E-3,-1.493028045E-2,1.649334470E-2
3.438687875E0,2.440358293E-3,2.553351853E-2,-6.099230647E-3,2.636506271E-2
3.448637875E0,3.370595486E-3,1.926776101E-2,-1.567755461E-2,2.506777307E-2
3.458587875E0,-3.297738265E-4,2.380802575E-2,-2.211416960E-2,3.249565106E-2
3.468537875E0,-8.959711385E-3,3.423046838E-2,-2.121603727E-2,4.125677679E-2
3.478487875E0,-3.212798322E-3,2.119435689E-2,-1.088810027E-2,2.404316045E-2
3.488436875E0,-4.764110316E-5,1.958783668E-2,-1.942035735E-2,2.758325388E-2
3.498386875E0,-1.321543828E-3,1.099121911E-2,-1.418125212E-2,1.799058886E-2
3.508336875E0,-9.147073533E-3,-1.073644725E-3,-1.927183807E-2,2.135943374E-2
3.518286875E0,-4.890533513E-3,-1.426264034E-2,-1.253643036E-2,1.960873055E-2
3.528236875E0,-1.514353937E-2,-2.471161243E-2,-1.732705414E-2,3.376710498E-2
3.538186875E0,-1.212660450E-2,-2.441384982E-2,-8.794797063E-3,2.864330733E-2
3.548136875E0,-5.030387035E-3,-3.274263522E-2,-9.542655945E-3,3.447386310E-2
3.558085875E0,-9.412523420E-3,-3.035174985E-2,-1.493203461E-2,3.511110898E-2
3.568035875E0,-5.445676390E-3,-2.796385433E-2,-2.091899872E-2,3.534454764E-2
3.577985875E0,3.898571650E-3,-2.143814696E-2,-6.249504089E-3,2.266824447E-2
3.587935875E0,1.499034232E-3,-1.299215915E-2,-5.202267766E-3,1.407504504E-2
3.597885875E0,5.122736497E-3,6.666216420E-3,-2.181830049E-2,2.338202529E-2
3.607835875E0,5.552269304E-3,1.295981674E-2,-1.627981782E-2,2.153641132E-2
3.617785875E0,4.443806238E-3,1.642799220E-2,-9.094759226E-3,1.929613918E-2
3.627734875E0,-3.933732603E-3,2.595681811E-2,-1.642950654E-2,3.097029777E-2
3.637684875E0,-1.103258131E-2,2.498560930E-2,-2.376425385E-2,3.620411970E-2
3.647634875E0,-3.647456579E-3,2.751934717E-2,-1.553078949E-2,3.180917840E-2
3.657584875E0,-3.183269883E-3,1.539627384E-2,-1.628040254E-2,2.263249792E-2
3.667534875E0,-1.275643185E-2,2.190447154E-2,-1.822635591E-2,3.122070590E-2
3.677484875E0,-1.016784207E-2,4.306542850E-3,-1.193942964E-2,1.626288117E-2
3.687434875E0,-1.391367805E-3,-8.648175846E-3,-9.394721389E-3,1.284475145E-2
3.697383875E0,-3.711853609E-3,-1.232449620E-2,-1.223939180E-2,1.776158145E-2
3.707333875E0,-3.223332446E-3,-2.679243319E-2,-1.912507296E-2,3.307556143E-2
3.717283875E0,-4.542281572E-3,-3.191381295E-2,-7.598456740E-3,3.311888168E-2
3.727233875E0,3.655880224E-4,-2.861724413E-2,-2.062137544E-2,3.527494070E-2
3.737183875E0,1.781993788E-3,-2.879062778E-2,-1.403507173E-2,3.207894930E-2
3.747133875E0,-5.895921132E-3,-2.400042427E-2,-1.747791231E-2,3.026978146E-2
3.757083875E0,-2.522443151E-3,-1.362782686E-2,-1.418476045E-2,1.983148541E-2
3.767032875E0,-3.246712172E-4,-5.479359550E-3,-1.223880708E-2,1.341332141E-2
3.776982875E0,9.042536281E-4,6.834287324E-3,-1.792697847E-2,1.920681428E-2
3.786932875E0,-8.765387395E-4,2.037416613E-2,-1.732822359E-2,2.676083516E-2
3.796882875E0,-3.863333040E-3,3.219290330E-2,-2.077047944E-2,3.850611875E-2
3.806832875E0,-1.133659084E-2,2.055548235E-2,-1.642892182E-2,2.865232309E-2
3.816782875E0,-1.364753838E-2,2.299545463E-2,-9.992306828E-3,2.854632084E-2
3.826732875E0,-1.164816521E-2,1.504452728E-2,-2.361573458E-2,3.032689357E-2
3.836682875E0,-1.100177836E-2,4.420086185E-3,-1.493261933E-2,1.906723391E-2
3.846631875E0,-1.092250748E-2,2.413065957E-3,-9.544410110E-3,1.470441502E-2
3.856581875E0,-9.641190665E-3,-1.116699875E-2,-1.403507173E-2,2.036265349E-2
3.866531875E0,7.342960825E-4,-1.618449222E-2,-2.301522553E-2,2.814564949E-2
3.876481875E0,-4.656759091E-5,-2.185378121E-2,-1.313518524E-2,2.549750994E-2
3.886431875E0,-1.516169314E-3,-2.512403071E-2,-1.268553436E-2,2.818578490E-2
3.896381875E0,-2.687014863E-3,-2.592825812E-2,-1.762526214E-2,3.146656135E-2
3.906331875E0,-6.451712684E-3,-2.552865346E-2,-1.328370452E-2,2.949226254E-2
3.916280875E0,-2.421496455E-3,-1.699152675E-2,-9.691759944E-3,1.971055142E-2
3.926230875E0,-6.491190526E-3,-6.496078433E-3,-9.541486502E-3,1.324290580E-2
3.936180875E0,-2.907619346E-3,3.277049172E-3,-1.522907317E-2,1.584670221E-2
3.946130875E0,-1.096225027E-2,3.871484881E-3,-1.403214812E-2,1.822252746E-2
3.956080875E0,-3.094584066E-3,1.365810219E-2,-1.777436614E-2,2.262848421E-2
3.966030875E0,-1.635350644E-2,2.263828797E-2,-1.028934538E-2,2.976239042E-2
3.975980875E0,-5.701135760E-3,2.347706877E-2,-1.462914884E-2,2.824336564E-2
3.985930875E0,-3.576326114E-3,1.787126547E-2,-1.103661954E-2,2.130678786E-2
3.995879875E0,-6.936378339E-3,1.797364199E-2,-2.465887785E-2,3.129257752E-2
4.005829875E0,-3.757402506E-3,1.160039163E-2,-8.491911292E-3,1.485933097E-2
4.015779875E0,-1.427711905E-3,-7.657225826E-4,-1.103603482E-2,1.115431562E-2
4.025729875E0,-3.616735856E-3,-1.738554229E-2,-7.593778968E-3,1.931329433E-2
4.035679875E0,7.511474839E-3,-1.109291727E-2,-7.144712806E-3,1.518295060E-2
4.045629875E0,4.439699482E-3,-2.435938620E-2,-1.657568693E-2,2.979671165E-2
4.055579875E0,4.735742183E-4,-3.042300365E-2,-1.103778899E-2,3.236689991E-2
4.065528875E0,-8.924724022E-3,-2.963293747E-2,-7.893741131E-3,3.193857904E-2
4.075478875E0,-9.404954016E-3,-1.786787591E-2,-1.912039518E-2,2.780833799E-2
4.085428875E0,-5.056530484E-3,-1.164854893E-2,-1.822226286E-2,2.221053931E-2
4.095378875E0,-7.089726138E-3,-1.225960581E-2,-1.657510221E-2,2.180128814E-2
4.105328875E0,4.099309305E-4,-7.634561013E-3,-1.477883756E-2,1.663936913E-2
4.115278875E0,-6.573910355E-3,-6.055079601E-3,-7.293232083E-3,1.153566299E-2
4.125228875E0,-9.526397944E-3,1.324987289E-2,-1.358074307E-2,2.123082598E-2
4.135178875E0,-2.173304991E-3,1.705314178E-2,-6.994439363E-3,1.855950110E-2
4.145127875E0,-3.741094256E-3,2.002579085E-2,-1.672420621E-2,2.635767741E-2
4.155077875E0,-1.361355600E-2,1.695931224E-2,-7.742882967E-3,2.308461426E-2
4.165027875E0,-5.148889082E-3,6.120166420E-3,-1.702416837E-2,1.880930101E-2
4.174977875E0,-9.592311596E-4,1.492510475E-2,-1.941977262E-2,2.451135339E-2
4.184927875E0,4.265909269E-4,8.090559323E-4,-7.294986248E-3,7.352100086E-3
4.194877875E0,1.458820920E-3,-1.385173411E-2,-1.447946012E-2,2.009112893E-2
4.204827875E0,2.503604153E-3,-1.054822857E-2,-1.328078091E-2,1.714387067E-2
4.214777875E0,-3.771636821E-4,-1.141177553E-2,-2.001735806E-2,2.304485837E-2
4.224726875E0,-1.119452634E-2,-1.531390119E-2,-1.582548916E-2,2.470382758E-2
4.234676875E0,-6.233611540E-3,-1.815002691E-2,-9.538562894E-3,2.143048230E-2
4.244626875E0,-4.444815796E-3,-1.805126149E-2,-1.941743374E-2,2.688198583E-2
4.254576875E0,-6.596175455E-3,-1.642137982E-2,-1.238264859E-2,2.159863959E-2
4.264526875E0,-4.065505089E-3,-1.083849030E-2,-6.245995760E-3,1.315346595E-2
4.274476875E0,-4.683893826E-4,-9.734837478E-3,-5.647240877E-3,1.126400368E-2
4.284426875E0,-7.457342413E-3,7.465544504E-3,-6.095722318E-3,1.218622752E-2
4.294376792E0,-4.691006416E-3,1.024485858E-2,-1.103486538E-2,1.577120548E-2
4.304325792E0,7.187963929E-5,1.235541792E-2,-9.388289452E-3,1.551778004E-2
4.314275792E0,-6.392390854E-3,1.149972359E-2,-4.449146390E-3,1.388888790E-2
4.324225792E0,-8.416674072E-3,1.311407816E-2,-9.090081453E-3,1.804020591E-2
4.334175792E0,1.518613268E-3,1.799801072E-2,-1.477825284E-2,2.333733775E-2
4.344125792E0,-4.302271642E-4,1.721595933E-2,-1.837078214E-2,2.518054780E-2
4.354075792E0,3.594210371E-3,-1.268496334E-3,-1.687389493E-2,1.729901041E-2
4.364025792E0,2.633645316E-3,-2.617305089E-3,-1.941860318E-2,1.977039512E-2
4.373975792E0,1.098289825E-3,-7.019991239E-3,-2.735152066E-2,2.825937366E-2
4.383924792E0,8.831122890E-5,-2.013835203E-2,-2.330992520E-2,3.080444179E-2
4.393874792E0,-4.239144553E-3,-2.123951293E-2,-1.896895230E-2,2.879076948E-2
4.403824792E0,-6.177286408E-3,-2.759543178E-2,-8.040506244E-3,2.939925956E-2
4.413774792E0,-9.716117252E-3,-2.627374405E-2,-5.495797992E-3,2.854673986E-2
4.423724792E0,-9.742050567E-3,-1.378529741E-2,-1.043552577E-2,1.984545721E-2
4.433674792E0,-9.779198659E-3,-1.273527452E-2,-6.095137596E-3,1.717470948E-2
4.443624792E0,-2.308581239E-3,-1.020298018E-3,-1.178272426E-2,1.205002682E-2
4.453574792E0,-2.234294191E-3,-7.259507810E-3,-2.300820887E-2,2.422953156E-2
4.463523792E0,-3.364341706E-3,4.682834018E-3,-1.073314905E-2,1.218393279E-2
4.473473792E0,-6.567400759E-3,1.415199092E-2,-1.552318811E-2,2.200861124E-2
4.483423792E0,-6.016414887E-3,1.185485058E-2,1.541910768E-3,1.338328133E-2
4.493373792E0,-2.919843681E-3,6.328124015E-3,-9.085403681E-3,1.145055460E-2
4.503323792E0,5.770571446E-3,1.690558638E-2,-2.195804894E-2,2.830643494E-2
4.513273792E0,5.747812986E-3,1.028831527E-2,-6.689214706E-3,1.355110249E-2
4.523223792E0,1.096672704E-4,-3.117532104E-3,-1.147925377E-2,1.189555801E-2
4.533173792E0,-4.600050235E-3,-5.934174713E-3,-9.234507680E-3,1.190172356E-2
4.543122792E0,-4.188735159E-3,-3.546560132E-3,-1.267617881E-2,1.381336673E-2
4.553072792E0,9.296661755E-4,-1.975520637E-2,-7.437073588E-3,2.112918649E-2
4.563022792E0,2.842596481E-3,-2.256104991E-2,-1.028057456E-2,2.495539102E-2
4.572972792E0,1.586568877E-3,-2.365653718E-2,-6.388667822E-3,2.455532587E-2
4.582922792E0,-6.111098668E-3,-2.395210936E-2,-1.881400108E-2,3.106470194E-2
4.592872792E0,-4.740442797E-3,-1.161171148E-2,-1.402396202E-2,1.881422738E-2
4.602822792E0,-1.321173809E-3,-6.771263019E-3,-1.746680260E-2,1.877990139E-2
4.612772792E0,-1.450945451E-3,-1.201774579E-2,-5.641393661E-3,1.335502823E-2
4.622722792E0,-4.122515442E-4,-1.332230985E-3,-1.103018761E-2,1.111799574E-2
4.632671792E0,-6.977281440E-3,8.772730676E-3,-1.357606530E-2,1.760547667E-2
4.642621792E0,1.058177012E-3,8.188879341E-3,-1.342696130E-2,1.576263853E-2
4.652571792E0,4.107002048E-3,1.194381734E-2,-1.237797081E-2,1.768435466E-2
4.662521792E0,-2.495984500E-3,1.173861890E-2,-1.432275474E-2,1.868599517E-2
4.672471792E0,3.745009149E-3,1.291096965E-2,5.437325835E-3,1.450112902E-2
4.682421792E0,-2.630310575E-3,1.485576499E-2,-1.087816000E-2,1.859964119E-2
4.692371792E0,1.118595195E-3,5.250244627E-3,-1.776442587E-2,1.855777871E-2
4.702321792E0,3.446883378E-3,-7.401204575E-4,-4.741507173E-3,5.908525499E-3
4.712270792E0,-1.071241884E-3,-6.699874455E-3,-1.836259604E-2,1.957602641E-2
4.722220792E0,-1.766649415E-3,-7.811546638E-3,-2.030854940E-2,2.183067772E-2
4.732170792E0,-1.354452688E-3,-2.203937777E-2,-1.192598104E-2,2.509577133E-2
4.742120792E0,-9.668919258E-3,-2.129706004E-2,-6.087536216E-3,2.416838561E-2
4.752070792E0,-9.068428483E-3,-1.739211127E-2,-1.147633016E-2,2.272505409E-2
4.762020792E0,1.854558648E-3,-1.252220746E-2,-1.731419027E-2,2.144822259E-2
4.771970792E0,-8.866343228E-4,-1.569972378E-2,-1.851170003E-2,2.428889634E-2
4.781920792E0,-6.856732867E-3,-4.943686074E-3,-1.851170003E-2,2.035037729E-2
4.791870792E0,-1.184850544E-2,1.333347894E-4,-8.631659746E-3,1.465982296E-2
4.801819792E0,-9.712225199E-4,9.261866254E-3,-1.207450032E-2,1.524857363E-2
4.811769792E0,1.074686260E-3,7.547809803E-3,-1.985831380E-2,2.127150701E-2
4.821719792E0,-5.443099961E-3,6.235639793E-3,-1.761298299E-2,1.946092779E-2
4.831669792E0,-7.122913655E-4,2.105851877E-3,-7.432980537E-3,7.758296900E-3
4.841619792E0,-5.156609234E-3,4.828635254E-3,-1.177336872E-2,1.373020568E-2
4.851569792E0,-4.278014833E-3,9.771736606E-3,3.643984795E-3,1.127239426E-2
4.861519792E0,-5.671113962E-3,3.559577039E-3,-1.566469073E-2,1.703568778E-2
4.871469792E0,2.656691568E-3,-9.083375428E-4,-8.628736138E-3,9.074038490E-3
4.881418792E0,9.296118147E-3,-8.577810545E-3,-9.826245904E-3,1.601723306E-2
4.891368792E0,-3.312995844E-4,-1.838255879E-2,-1.102375567E-2,2.143715038E-2
4.901318792E0,-3.103268095E-3,-1.239482724E-2,-1.431632280E-2,1.918903629E-2
4.911268792E0,-6.715189135E-3,-1.291561544E-2,-2.190951705E-3,1.472097676E-2
4.921218792E0,2.125458322E-3,-1.182195086E-2,-6.081104279E-3,1.346313204E-2
4.931168792E0,-1.290293201E-3,-1.499163967E-2,-1.326499343E-2,2.005926637E-2
4.941118792E0,-9.605609444E-3,-1.403506716E-2,-1.970102370E-2,2.602654756E-2
4.951068792E0,5.890101325E-3,-8.428551229E-3,-1.026946485E-2,1.453257299E-2
4.961018792E0,1.656931895E-3,6.959602749E-3,-2.149553418E-2,2.265478942E-2
4.970967792E0,2.527975165E-3,3.634891917E-3,-1.550798535E-2,1.612763800E-2
4.980917792E0,7.869009236E-3,6.220523827E-4,-1.775273144E-2,1.942852874E-2
4.990867792E0,3.916812222E-4,4.029948993E-3,-1.460926831E-2,1.515996780E-2
5.000817792E0,1.440589484E-3,-1.578375923E-3,-1.266448438E-2,1.284350938E-2
5.010767792E0,2.374394392E-3,7.863525187E-3,-1.296386182E-2,1.534713297E-2
5.020717792E0,-6.976687582E-3,-3.753245501E-3,5.075383186E-4,7.938426579E-3
5.030667792E0,-3.125884943E-3,3.405902619E-3,-1.221600294E-2,1.306147224E-2
5.040617792E0,-5.242855665E-3,-5.630487234E-3,-6.676935554E-3,1.018682435E-2
5.050567792E0,-6.236251923E-3,-1.111415454E-2,-3.683161139E-3,1.326578098E-2
5.060516792E0,-6.388247553E-3,-1.351794489E-2,-1.865144849E-2,2.390441532E-2
5.070466792E0,-3.717595758E-4,-1.267570601E-2,-1.371172071E-2,1.867680414E-2
5.080416792E0,7.666700142E-3,-1.639334517E-2,-1.281300366E-2,2.217415431E-2
5.090366792E0,-2.547883107E-3,-1.492711473E-2,-1.191545606E-2,1.926884935E-2
5.100316792E0,-3.286372740E-3,-2.293954063E-3,-1.161607862E-2,1.228803294E-2
5.110266792E0,-5.840445673E-3,-6.449967655E-3,-4.281331301E-3,9.697560834E-3
5.120216792E0,-7.514576605E-3,-9.386734001E-3,-9.521021247E-3,1.533719278E-2
5.130166792E0,4.417196838E-3,5.072829598E-3,-3.383198977E-3,7.529360089E-3
5.140115792E0,-3.610747028E-3,4.607409504E-3,-1.565767407E-2,1.671611420E-2
5.150065792E0,3.765972331E-5,7.055510790E-4,-4.281331301E-3,4.339241672E-3
5.160015792E0,2.426777221E-4,1.163606422E-2,-5.479425788E-3,1.286394146E-2
5.169965792E0,1.526328851E-3,1.680381057E-2,-2.194460034E-2,2.768145975E-2
5.179915792E0,-7.387765115E-3,5.582336783E-3,-1.865203321E-2,2.082402219E-2
5.189865792E0,2.266234607E-3,1.223360854E-3,-1.101732373E-2,1.131432072E-2
5.199815792E0,2.589517110E-3,1.152607261E-3,-2.089794874E-2,2.108929501E-2
5.209765792E0,4.048694344E-4,-7.797559001E-4,-1.311296582E-2,1.314236703E-2
5.219715792E0,1.006366113E-2,-9.376647554E-3,-1.221483350E-2,1.839567754E-2
5.229665792E0,5.589696052E-3,-1.473762611E-2,-1.281300366E-2,2.031293647E-2
5.239614792E0,6.438835105E-4,-1.636674719E-2,-2.044829786E-2,2.619957795E-2
5.249564792E0,-3.774345727E-3,-1.083799694E-2,-1.610849440E-2,1.977856049E-2
5.259514792E0,-2.324085496E-4,-2.153884469E-2,-1.206748366E-2,2.469007911E-2
5.269464792E0,4.829736175E-3,-1.535549636E-2,-3.984292746E-3,1.658288904E-2
5.279414792E0,-4.869177472E-4,-2.753906096E-3,-1.326557815E-2,1.355716236E-2
5.289364792E0,2.623504051E-3,3.136930699E-3,-2.553946853E-2,2.586479384E-2
5.299315292E0,7.699321210E-4,8.539524986E-3,-2.314386427E-2,2.468106027E-2
5.309265292E0,1.857313234E-4,3.186481283E-3,-1.655756056E-2,1.686241296E-2
5.319215292E0,-2.346346029E-3,4.792752536E-3,-1.116993606E-2,1.237914731E-2
5.329164292E0,-3.747256673E-3,6.490352273E-3,-1.566059768E-2,1.736147819E-2
5.339114292E0,-1.156040216E-3,1.813304942E-2,-1.131962478E-2,2.140742431E-2
5.349064292E0,-4.970772844E-4,1.077429655E-2,-5.781142116E-3,1.223740806E-2
5.359014292E0,8.387328358E-4,1.229088841E-2,-1.625935256E-2,2.039941069E-2
5.368964292E0,2.880776972E-3,6.551599572E-3,-1.566001296E-2,1.721796558E-2
5.378914292E0,-2.802364896E-3,-7.271247923E-3,-1.071853101E-2,1.325183770E-2
5.388864292E0,-8.245510538E-3,-5.138978509E-3,-8.920512199E-3,1.318988560E-2
5.398814292E0,6.114862813E-4,-3.835789456E-3,3.354547620E-3,5.132269085E-3
5.408764292E0,1.497280980E-2,-1.601752223E-2,-1.146463573E-2,2.474235082E-2
5.418713292E0,1.602159929E-3,-1.063867312E-2,-1.595471263E-2,1.924321016E-2
5.428663292E0,1.494164597E-3,-9.491216436E-3,-8.019456267E-3,1.251508674E-2
5.438613292E0,-5.536422436E-3,-1.590856302E-2,-1.430638254E-2,2.209993059E-2
5.448563292E0,1.218882252E-2,-9.860858680E-3,-1.011451364E-2,1.865763422E-2
5.458513292E0,1.194510784E-2,3.328120946E-3,-1.161081612E-2,1.698743775E-2
5.468463292E0,-7.859608009E-3,4.831880915E-3,-2.373618722E-2,2.546619514E-2
5.478413292E0,2.393480069E-3,8.802617714E-4,-1.804801583E-2,1.822730049E-2
5.488363292E0,2.238629353E-3,7.955856377E-3,-1.520393014E-2,1.730510340E-2
5.498313292E0,3.646789631E-4,5.425412133E-3,-1.445548654E-2,1.544438987E-2
5.508262292E0,-9.115283866E-3,-7.538956753E-4,-1.954607248E-2,2.158021567E-2
5.518212292E0,2.223367207E-3,-6.958762212E-3,-1.191253245E-2,1.397412475E-2
5.528162292E0,-2.937312238E-6,4.311846457E-3,-8.470276594E-3,9.504610149E-3
5.538112292E0,-8.297884231E-4,-1.999565028E-4,-7.273351550E-3,7.323262538E-3
5.548062292E0,5.121329511E-3,-1.558362914E-3,-1.385965526E-2,1.485754202E-2
5.558012292E0,2.208575578E-3,-4.199812892E-3,-1.385965526E-2,1.464944635E-2
5.567962292E0,1.484069014E-3,-1.547485722E-2,-1.415903270E-2,2.102740769E-2
5.577912292E0,-5.142292692E-3,-1.569542288E-2,-1.969693065E-2,2.570522418E-2
5.587862292E0,-1.648142799E-3,-9.146047987E-3,-2.373794138E-2,2.549228177E-2
5.597811292E0,-4.598492500E-3,-2.585179664E-3,-1.400817454E-2,1.496857512E-2
5.607761292E0,-1.482474734E-3,-2.580593254E-3,-1.864794016E-2,1.888393140E-2
5.617711292E0,1.834399458E-3,-6.661271411E-3,-1.535478830E-2,1.683766854E-2
5.627661292E0,1.558840284E-3,-3.890652785E-3,-2.631831765E-3,4.949111088E-3
5.637611292E0,4.712631977E-3,-3.280415889E-3,-1.284633279E-3,5.883902720E-3
5.647561292E0,1.233853865E-3,7.522611958E-3,-1.595412791E-2,1.768180656E-2
5.657511292E0,4.010920417E-3,7.429380845E-3,-6.374049783E-3,1.057883231E-2
5.667461292E0,2.883111290E-3,7.689111424E-4,-1.281008005E-2,1.315301129E-2
5.677411292E0,-1.943577938E-3,4.663346345E-3,-3.679652810E-3,6.250131129E-3
5.687361292E0,-7.898766082E-5,9.434016505E-3,-1.520451486E-2,1.789369103E-2
5.697310292E0,7.203486459E-3,1.096444298E-2,-1.565299630E-2,2.042365100E-2
5.707260292E0,3.112696731E-3,-4.607546548E-3,-7.718909383E-3,9.513145021E-3
5.717210292E0,1.031695521E-3,-6.733610148E-3,-1.205871284E-2,1.384985403E-2
5.727160292E0,1.974732634E-3,-2.482766595E-3,-1.954256415E-2,1.979837146E-2
5.737110292E0,1.276438041E-3,-7.757142407E-3,-1.699844062E-2,1.872830841E-2
5.747060292E0,-1.852594349E-3,-4.498059719E-3,-1.355560005E-2,1.440204637E-2
5.757010292E0,2.778624287E-3,-1.494218958E-2,-1.639910102E-2,2.235889748E-2
5.766960292E0,-1.298607211E-3,-1.219392513E-2,-8.316494823E-3,1.481695910E-2
5.776910292E0,4.638303816E-3,-1.223429148E-2,6.652961969E-3,1.467833959E-2
5.786860292E0,4.020746481E-3,-1.113862605E-3,-3.825248480E-3,5.660354944E-3
5.796809292E0,-6.135967607E-4,-1.093870152E-3,-1.280598700E-2,1.286725907E-2
5.806759292E0,-4.482978014E-3,-7.080950746E-3,-1.924201727E-2,2.098790566E-2
5.816709292E0,-3.920407346E-3,9.844771984E-3,-2.283454657E-2,2.517351080E-2
5.826659292E0,-2.594121792E-3,3.517892787E-3,-1.400291204E-2,1.466923936E-2
5.836609292E0,5.448207138E-3,5.703490635E-3,-1.265688300E-2,1.491339846E-2
5.846559292E0,1.158004515E-3,-4.654760531E-3,-8.165636659E-3,9.470237172E-3
5.856509292E0,-5.375354486E-3,8.504980733E-4,-1.535011053E-2,1.628630333E-2
5.866459292E0,1.693216609E-3,1.328375477E-3,-6.219098568E-3,6.580938451E-3
5.876409292E0,-7.203774252E-3,1.170443553E-3,-3.973183036E-3,8.309662148E-3
5.886358292E0,3.719742782E-4,-2.290724390E-3,-1.250485539E-2,1.271838007E-2
5.896308292E0,6.437432687E-3,-4.126708992E-3,-8.313571215E-3,1.129538548E-2
5.906258292E0,4.301179857E-3,-5.032467821E-3,-1.564831853E-2,1.699104921E-2
5.916208292E0,-2.855085768E-4,-1.319299730E-2,-1.400232732E-2,1.924063054E-2
5.926158292E0,1.128790820E-2,-8.832895327E-3,-1.205695868E-2,1.872984688E-2
5.936108292E0,-2.801688812E-3,-8.961011020E-3,-2.732579291E-2,2.889373871E-2
5.946058292E0,-6.761222254E-3,-4.306469760E-3,-2.029042304E-2,2.181653215E-2
5.956008292E0,-5.866968278E-3,-1.751699957E-2,-1.040979803E-2,2.120449211E-2
5.965958292E0,-4.163834243E-3,-7.754428934E-3,-1.879295111E-2,2.075195641E-2
5.975908292E0,-3.456544988E-3,-1.049030002E-2,-1.520042181E-2,1.878954286E-2
5.985857292E0,-2.584254616E-3,-2.984498811E-3,-1.265571356E-2,1.325717507E-2
5.995807292E0,-2.900223532E-3,3.054375323E-3,-1.145761907E-2,1.220727406E-2
6.005757292E0,-7.076382609E-3,1.052861071E-2,-1.609796941E-2,2.049564474E-2
6.015707292E0,4.523460846E-3,-9.177159285E-4,-1.624765813E-2,1.689053863E-2
6.025657292E0,2.078639483E-3,3.971321520E-3,-9.211703539E-3,1.024439451E-2
6.035607292E0,6.323905340E-3,3.265601420E-3,-1.145703435E-2,1.348775621E-2
6.045557292E0,2.899753014E-3,-3.095198481E-3,-2.298482001E-2,2.337286401E-2
6.055507292E0,-8.266898557E-3,-4.365681955E-3,-1.415260077E-2,1.696163020E-2
6.065457292E0,-3.092491860E-3,-1.291728966E-2,-1.295450628E-2,1.855368187E-2
6.075407292E0,3.466658844E-3,-1.057446338E-2,-1.579917669E-2,1.932487991E-2
6.085356292E0,-1.331931772E-4,-1.815587869E-3,-1.041038275E-2,1.056835695E-2
6.095306292E0,-3.224771409E-3,-1.107150412E-2,-1.744516790E-2,2.091198788E-2
6.105256292E0,-2.102252184E-3,-1.096800384E-2,-2.175748944E-3,1.137762963E-2
6.115206292E0,4.908271590E-3,-7.000183796E-3,-2.148442447E-2,2.312302312E-2
6.125156292E0,-6.331109293E-3,-1.487443725E-2,-8.760883212E-3,1.838708523E-2
6.135106292E0,-2.602097760E-3,-7.556767920E-3,-1.250368595E-2,1.483973775E-2
6.145056292E0,1.881154343E-3,-1.873132694E-3,-1.444963932E-2,1.469147522E-2
6.155006292E0,1.204782240E-3,4.159791442E-4,-1.804275334E-2,1.808771647E-2
6.164956292E0,2.623092919E-3,-3.859235421E-3,-1.983843327E-2,2.037983682E-2
6.174906292E0,2.024392853E-3,-6.800437428E-3,-8.312401772E-3,1.092886723E-2
6.184855292E0,3.060948872E-3,-8.337419175E-3,-9.508157372E-3,1.301103467E-2
6.194805292E0,2.341837278E-3,4.939702658E-3,-1.549512148E-2,1.643117932E-2
6.204755292E0,-2.394000837E-3,-1.219226690E-3,-9.807534814E-3,1.016884914E-2
6.214705292E0,-1.927479822E-4,-5.559091817E-3,-1.594418764E-2,1.688661521E-2
6.224655292E0,3.712388081E-3,-9.923526670E-3,-1.444788516E-2,1.791646149E-2
6.234605292E0,7.271104027E-5,-1.078644551E-2,-1.699200869E-2,2.012662547E-2
6.244555292E0,8.072857792E-4,-1.669038372E-2,-1.729197085E-2,2.404647323E-2
6.254505292E0,-1.503378530E-3,-8.311405918E-4,-1.908882022E-2,1.916595938E-2
6.264455292E0,-9.857583325E-5,-4.819487559E-3,-2.073539615E-2,2.128834965E-2
6.274405292E0,-2.208146174E-4,-9.531269863E-3,-1.804041445E-2,2.040466657E-2
6.284354292E0,1.407694328E-3,-5.478493888E-3,-2.163177431E-2,2.235909565E-2
6.294303250E0,1.304838150E-3,-4.317890103E-3,-1.274693012E-3,4.687389446E-3
6.304253250E0,2.293657134E-3,-8.515672458E-3,-1.040512025E-2,1.363979721E-2
6.314203250E0,-2.075857488E-3,-4.421954553E-3,-1.100270569E-2,1.203837194E-2
6.324153250E0,5.557435867E-3,1.897770942E-3,-6.812006235E-3,8.993889977E-3
6.334103250E0,2.165858927E-3,-6.730031013E-3,-1.848714173E-2,1.979289447E-2
6.344053250E0,5.741783045E-3,8.075550708E-3,-8.307723999E-3,1.293061753E-2
6.354003250E0,7.025114405E-3,9.420369195E-3,-2.612009704E-2,2.864184103E-2
6.363953250E0,2.795699984E-5,1.580474982E-3,-1.863507628E-2,1.870199858E-2
6.373903250E0,5.001868154E-3,4.067743476E-3,-1.040219665E-2,1.223809287E-2
6.383852250E0,-3.322177799E-4,-7.973683532E-6,-6.809082627E-3,6.817186990E-3
6.393802250E0,-2.645549881E-3,-1.151911990E-2,-7.858073115E-3,1.419289860E-2
6.403752250E0,2.073121173E-3,-4.610693995E-3,-1.870524287E-3,5.390286785E-3
6.413702250E0,2.138870372E-3,-1.009511276E-2,-1.638974547E-2,1.936775219E-2
6.423652250E0,3.353455835E-3,-1.184367920E-2,-1.698791564E-2,2.097874354E-2
6.433602250E0,-3.256702689E-3,-1.257192022E-2,-5.161921978E-3,1.397514683E-2
6.443552250E0,-4.049617108E-3,1.743669400E-3,-1.908180356E-2,1.958456047E-2
6.453502250E0,-4.981302400E-3,-2.024181349E-2,-1.563954771E-2,2.606031157E-2
6.463452250E0,-3.939876747E-3,-1.365023815E-2,-8.304215670E-3,1.645635525E-2
6.473402250E0,-4.053678182E-3,-6.696302171E-3,-1.384328306E-2,1.590312093E-2
6.483352250E0,-1.098298961E-3,-6.545647290E-3,-3.514176607E-3,7.510072987E-3
6.493302250E0,-5.764303962E-4,2.992191555E-3,-1.623830259E-2,1.652174183E-2
6.503251250E0,1.065286404E-2,2.744966252E-3,-1.683647275E-2,2.011181659E-2
6.513201250E0,-1.813354050E-3,6.256374568E-3,-6.806743741E-3,9.421371238E-3
6.523151250E0,-1.235100967E-3,1.523654207E-3,-2.461970150E-2,2.469770635E-2
6.533101250E0,9.526219787E-3,-7.110785251E-3,-7.705460787E-3,1.416637767E-2
6.543051250E0,7.840714194E-3,3.755735136E-3,-1.384328306E-2,1.634682940E-2
6.553001250E0,2.602824094E-3,2.450207197E-3,-1.025075376E-2,1.085615776E-2
6.562951250E0,4.080452034E-3,-2.668175865E-3,-1.593950987E-2,1.666845002E-2
6.572901250E0,4.673898742E-3,9.410773823E-4,-1.414266050E-2,1.492467092E-2
6.582851250E0,2.350101038E-3,-4.436568024E-3,-1.564071715E-2,1.642675085E-2
6.592801250E0,-1.854174924E-3,-7.038784556E-3,-1.129974425E-2,1.344123033E-2
6.602750250E0,3.569405386E-4,-1.201525843E-2,-1.040161192E-2,1.589614332E-2
6.612700250E0,1.378060821E-3,-1.952122410E-2,-3.666204214E-3,1.991025603E-2
6.622650250E0,6.258183550E-3,-1.882606325E-2,-1.354565978E-2,2.402229002E-2
6.632600250E0,6.227522213E-3,-1.436227598E-2,-1.159970641E-2,1.948358779E-2
6.642550250E0,2.237172117E-3,-5.597096435E-3,-5.761261582E-3,8.338139037E-3
6.652500250E0,6.794336680E-3,-6.545544507E-3,-1.728670835E-2,1.969358905E-2
6.662450250E0,5.940017360E-3,1.983880328E-3,-1.324511290E-2,1.465102737E-2
6.672400250E0,1.715097986E-3,8.531674643E-3,-8.455073833E-3,1.213339634E-2
6.682350250E0,-1.364927427E-3,-1.302974350E-3,9.747308493E-4,2.123880709E-3
6.692300250E0,2.001227830E-3,-1.860917495E-3,-1.444379210E-2,1.470003596E-2
6.702250250E0,1.108068836E-2,-6.336449445E-3,-2.019628286E-3,1.292327917E-2
6.712199250E0,3.521668352E-3,2.171888868E-3,-9.054413438E-3,9.954981263E-3
6.722149250E0,-3.469765177E-3,-2.677362389E-3,-1.384386778E-2,1.452102664E-2
6.732099250E0,5.360453222E-3,5.547956983E-4,-9.802272320E-3,1.118600910E-2
6.742049250E0,-6.030164980E-3,-1.334367502E-2,-1.548985898E-2,2.131554091E-2
6.751999250E0,1.766471257E-3,-1.212312358E-2,-1.758667052E-2,2.143318749E-2
6.761949250E0,1.068240618E-3,-6.616471689E-3,7.484436035E-5,6.702569456E-3
6.771899250E0,4.667987572E-3,-7.006588324E-3,-1.055422425E-2,1.350089025E-2
6.781849250E0,8.617452839E-3,-1.025757627E-2,-7.601380348E-5,1.339716920E-2
6.791799250E0,9.599072440E-4,-5.983522015E-3,-1.250017762E-2,1.389166650E-2
6.801749250E0,3.312995844E-4,-7.372772489E-3,-5.913873911E-3,9.457348371E-3
6.811699250E0,6.699401652E-4,-4.538099442E-3,-2.920684218E-3,5.438158022E-3
6.821648250E0,-5.799359847E-3,-7.138230619E-3,-1.803924501E-2,2.024848813E-2
6.831598250E0,2.564712125E-3,-9.078259114E-5,-1.339889467E-2,1.364244729E-2
6.841548250E0,-3.609824264E-3,8.845238434E-4,-3.070957661E-3,4.821202610E-3
6.851498250E0,-2.977370233E-3,-2.316127801E-3,-2.322514057E-3,4.429814109E-3
6.861448250E0,5.416901694E-3,-7.762338663E-4,6.958186626E-3,8.852215774E-3
6.871398250E0,6.482844539E-3,-6.785579561E-4,-1.025601625E-2,1.215210203E-2
6.881348250E0,-7.256942801E-4,-2.334537394E-3,-5.016911030E-3,5.580868509E-3
6.891298250E0,1.112113008E-4,-1.322370660E-3,-6.065316796E-3,6.208792150E-3
6.901248250E0,-1.502569970E-3,-6.399457762E-3,-1.414850771E-2,1.560099505E-2
6.911198250E0,1.142376004E-2,-2.066305513E-3,-1.280130923E-2,1.728136076E-2
6.921148250E0,2.439755299E-3,-2.988041402E-4,-1.145411074E-2,1.171487698E-2
6.931098250E0,-6.306774826E-3,-4.955745956E-3,-1.070566714E-2,1.337707500E-2
6.941047250E0,-4.022655962E-4,-9.221936166E-3,-1.369944155E-2,1.651909874E-2
6.950997250E0,6.111048418E-3,-8.068278234E-3,-1.684348941E-2,1.965057663E-2
6.960947250E0,-2.884093439E-3,-5.254575221E-3,-1.010749698E-2,1.175117232E-2
6.970897250E0,2.020656117E-3,-1.581999598E-2,-6.963449121E-3,1.740244085E-2
6.980847250E0,3.184311418E-3,-2.117932315E-3,-1.190259218E-2,1.250188694E-2
6.990797250E0,-1.212516096E-3,-3.411370679E-4,-1.055539370E-2,1.063028249E-2
7.000747250E0,-5.705694761E-3,-8.892208021E-3,-2.920684218E-3,1.096160173E-2
7.010697250E0,7.731069764E-4,-1.836701799E-3,-1.669146180E-2,1.680999896E-2
7.020647250E0,-1.910426966E-3,1.006020305E-2,-1.504488587E-2,1.819906612E-2
7.030597250E0,1.771633253E-3,2.883536126E-3,-3.668543100E-3,4.991159530E-3
7.040547250E0,7.162957946E-3,-1.509714308E-2,-2.471033335E-3,1.689194191E-2
7.050496250E0,2.433067546E-3,3.004235448E-4,-1.205169618E-2,1.229851425E-2
7.060446250E0,4.358770363E-3,5.846804520E-4,-1.354858339E-2,1.424446707E-2
7.070396250E0,9.281737651E-3,-3.080463954E-3,-5.015741587E-3,1.099079504E-2
7.080346250E0,5.097858422E-4,-9.887047810E-4,2.019043565E-3,2.305201871E-3
7.090296250E0,1.736211916E-4,-1.461261904E-2,-1.459640443E-2,2.065463149E-2
7.100246250E0,-5.237794169E-3,-8.385432581E-3,-6.513798237E-3,1.183974387E-2
7.110196250E0,-2.354687448E-3,-2.146880601E-3,-1.130383730E-2,1.174437682E-2
7.120146250E0,2.252658103E-3,-3.105332893E-3,-1.085652530E-2,1.151441282E-2
7.130096250E0,-2.361516813E-3,-8.293565058E-3,-9.808119535E-3,1.305983123E-2
7.140046250E0,2.185986140E-3,1.465154642E-3,-8.610609770E-3,9.003766664E-3
7.149996250E0,7.336423821E-3,-9.225809947E-3,7.192075253E-5,1.178744486E-2
7.159946250E0,6.885882150E-3,-8.919358745E-3,-1.310068667E-2,1.727999782E-2
7.169895250E0,1.293851780E-3,4.115167593E-3,-1.504664004E-2,1.565279634E-2
7.179845250E0,-9.191142353E-3,2.525206874E-3,-1.744107485E-2,1.987573544E-2
7.189795250E0,1.890720022E-3,1.523492038E-3,-1.574655175E-3,2.894026453E-3
7.199745250E0,8.103720127E-3,-3.128872504E-3,-6.365863681E-3,1.076960275E-2
7.209695250E0,8.854644229E-3,6.782996280E-3,-3.222985268E-3,1.161040038E-2
7.219645250E0,3.194361320E-3,-7.702336181E-5,-8.014193773E-3,8.627698342E-3
7.229595250E0,3.179058060E-3,-1.443188754E-2,-1.998987615E-2,2.485922237E-2
7.239545250E0,1.773300623E-3,-8.953800215E-4,-1.205695868E-2,1.221951525E-2
7.249495250E0,-3.148245974E-3,5.921676289E-4,-9.213457704E-3,9.754481948E-3
7.259445250E0,-2.859923425E-3,-6.173503990E-3,-1.071092963E-2,1.268918150E-2
7.269395250E0,1.682221103E-3,-2.123704157E-4,-1.026244819E-2,1.040157738E-2
7.279345250E0,5.820254507E-3,-6.248231863E-3,-2.927700877E-3,9.027025887E-3
7.289294250E0,7.840723330E-3,-1.073856915E-2,-1.535303414E-2,2.031032907E-2
7.299244625E0,-2.308403081E-3,-8.940388164E-3,-3.827002645E-3,9.995259604E-3
7.309194625E0,-1.537283245E-3,-2.784400696E-3,-1.640085518E-2,1.670641128E-2
7.319144625E0,8.837015787E-4,-1.139978645E-4,-6.670503616E-3,6.729750552E-3
7.329094625E0,-2.711828984E-4,1.769525057E-3,-1.280774117E-2,1.293224624E-2
7.339044625E0,5.033520777E-3,2.647637520E-3,-1.295684516E-2,1.415012906E-2
7.348994625E0,4.564752239E-3,-1.690270160E-3,2.011442184E-3,5.266865850E-3
7.358944625E0,-1.702567586E-3,-8.886025047E-3,-1.026361763E-2,1.368217908E-2
7.368894625E0,6.466394677E-3,-1.303036020E-3,-8.767315149E-3,1.097168984E-2
7.378844625E0,1.192224431E-3,7.160799501E-3,-3.377936482E-3,8.006803574E-3
7.388794625E0,-1.822412666E-3,8.338723378E-4,-8.465598822E-3,8.699591623E-3
7.398744625E0,4.130998473E-3,-3.854607898E-3,-8.016532660E-3,9.807545376E-3
7.408694625E0,7.670455151E-3,-7.394233597E-3,-1.834563911E-2,2.121492510E-2
7.418643625E0,4.907120420E-3,-1.353510510E-2,-2.193933785E-2,2.624144520E-2
7.428593625E0,4.305885038E-3,-1.149463012E-2,-1.565299630E-2,1.989179380E-2
7.438543625E0,1.711712996E-3,-4.374295177E-3,-1.041447580E-2,1.142478559E-2
7.448493625E0,-4.539677734E-4,-1.647430626E-2,-8.469107151E-3,1.852929112E-2
7.458443625E0,3.899329961E-3,-9.789239424E-3,-6.822531223E-3,1.255312371E-2
7.468393625E0,-9.131158143E-4,-3.841143313E-3,-3.978445530E-3,5.605014833E-3
7.478343625E0,3.035358167E-3,-3.683684191E-3,-1.041506052E-2,1.145671917E-2
7.488293625E0,3.397858129E-3,-3.857273406E-3,-7.570974827E-3,9.151156092E-3
7.498243625E0,-2.467885888E-3,-9.006445713E-3,-1.325914621E-2,1.621762879E-2
7.508193625E0,-4.781752462E-3,9.757497723E-3,-3.529379368E-3,1.142499178E-2
7.518143625E0,-2.734244834E-3,1.119521842E-2,-3.229417205E-3,1.196821397E-2
7.528093625E0,-5.435261037E-3,5.102412854E-3,-7.570390105E-3,1.062485227E-2
7.538043625E0,-5.725639248E-3,-2.089447696E-3,-1.221074045E-2,1.364737772E-2
7.547992625E0,-3.347978638E-3,-1.044586804E-3,-5.624436736E-3,6.628303792E-3
7.557942625E0,6.792756105E-3,-9.870282747E-4,-1.400700510E-2,1.559845993E-2
7.567892625E0,2.789624361E-4,1.217481662E-3,-9.965409636E-3,1.004337945E-2
7.577842625E0,-3.442507102E-3,-6.031311583E-5,-6.821946502E-3,7.641560501E-3
7.587792625E0,-6.654410069E-3,7.556651433E-3,-6.074087620E-3,1.175919617E-2
7.597742625E0,6.723800073E-3,3.262047409E-3,6.256520748E-5,7.473577131E-3
7.607692625E0,-1.760080433E-3,-8.953003075E-3,-4.277822971E-3,1.007739632E-2
7.617642625E0,-3.747032834E-3,-4.872612711E-3,-9.846711159E-4,6.225125452E-3
7.627592625E0,5.948532368E-3,-2.918187731E-3,2.608442903E-3,7.120732501E-3
7.637542625E0,6.973010232E-3,-7.112454905E-3,-7.721248269E-3,1.260268072E-2
7.647492625E0,6.001271512E-3,-7.507215051E-3,-7.421870828E-3,1.214321639E-2
7.657442625E0,-2.460092646E-3,-7.897144393E-4,-1.734284163E-3,3.111823626E-3
7.667392625E0,5.088543990E-3,-3.905567753E-3,-2.254043162E-2,2.343539624E-2
7.677341625E0,-3.185764086E-3,-8.330681173E-3,-3.679652810E-3,9.648273753E-3
7.687291625E0,-8.326837085E-3,3.296230780E-3,-1.760070384E-2,1.974806645E-2
7.697241625E0,-9.587789141E-4,1.107713892E-3,-8.171483874E-3,8.301773050E-3
7.707191625E0,3.257625452E-3,-3.161212632E-3,-1.505658031E-2,1.572596577E-2
7.717141625E0,-1.102374197E-2,7.486491697E-4,-1.266156077E-2,1.680471612E-2
7.727091625E0,-5.088333855E-3,2.468746982E-3,-1.251304150E-2,1.373179014E-2
7.737041625E0,4.501501811E-3,-6.447777234E-3,-1.176576734E-2,1.415170063E-2
7.746991625E0,1.177716027E-3,2.031404944E-4,-3.683161139E-3,3.872203130E-3
7.756941625E0,-4.543556082E-3,-4.808649654E-4,-1.206572950E-2,1.290182008E-2
7.766891625E0,-2.886651596E-4,-5.990170939E-3,-7.424794436E-3,9.544267801E-3
7.776841625E0,-1.945980778E-4,-1.248077217E-2,-4.730397463E-3,1.334856557E-2
7.786791625E0,-4.208168015E-4,-4.149469736E-3,-1.586349607E-3,4.462251779E-3
7.796741625E0,2.570906519E-3,-1.524060771E-3,-9.968917966E-3,1.040728817E-2
7.806690625E0,1.505251466E-3,-1.247427628E-2,-8.622304201E-3,1.523868369E-2
7.816640625E0,-2.246760637E-3,1.267345164E-3,-3.981953859E-3,4.744476121E-3
7.826590625E0,-6.832649647E-3,1.111857193E-3,-7.874445319E-3,1.048466579E-2
7.836540625E0,4.885330405E-3,-8.892610017E-4,-6.976897717E-3,8.563547165E-3
7.846490625E0,-5.294713159E-3,-2.284662472E-3,-9.222228527E-3,1.087672603E-2
7.856440625E0,-7.437594356E-3,2.199596905E-3,-1.446074903E-2,1.640942713E-2
7.866390625E0,-2.530697775E-3,-1.023820052E-3,-8.771992922E-3,9.186974396E-3
7.876340625E0,-1.438396778E-3,2.902101036E-3,-6.227284670E-3,7.019277034E-3
7.886290625E0,-6.524487678E-4,8.133677971E-3,-6.975143552E-3,1.073475823E-2
7.896240625E0,6.456865543E-3,-1.875170083E-3,-8.920512199E-3,1.117062726E-2
7.906190625E0,-4.435752612E-4,-2.573300223E-4,-6.876325607E-4,8.577973486E-4
7.916140625E0,-2.970677912E-3,-8.298665383E-3,-1.086529613E-2,1.399097689E-2
7.926090625E0,6.227741484E-4,-8.815280590E-3,-1.041622996E-2,1.365997314E-2
7.936040625E0,3.722556755E-3,-7.901584622E-3,-2.224105418E-2,2.389470567E-2
7.945990625E0,-4.092799709E-3,-7.337581844E-3,1.409178972E-3,8.519207836E-3
7.955939625E0,-1.149114920E-4,-1.801065075E-2,-5.177709460E-3,1.874047546E-2
7.965889625E0,-1.011052108E-3,-8.086523374E-3,-2.209195018E-2,2.354715162E-2
7.975839625E0,1.646699267E-3,-1.090406134E-2,-6.075257063E-3,1.259042972E-2
7.985789625E0,4.987108503E-3,-9.333353033E-3,-6.824285388E-3,1.259180690E-2
7.995739625E0,-4.024364445E-3,-7.448946177E-3,-6.076426506E-3,1.042138510E-2
8.005689625E0,-7.191326078E-3,-7.158773532E-4,-1.221366405E-2,1.419159050E-2
8.015639625E0,2.223362639E-3,-1.032235474E-2,-6.824285388E-3,1.257239913E-2
8.025589625E0,1.343571385E-3,7.283433429E-3,-1.885142326E-3,7.642470031E-3
8.035539625E0,-8.947272347E-3,1.215457977E-3,-1.326090038E-2,1.604314493E-2
8.045489625E0,-4.720132858E-3,-1.951531065E-4,-1.865027905E-2,1.923929956E-2
8.055439625E0,-5.721664969E-3,2.396147861E-3,-1.026771069E-2,1.199603507E-2
8.065389625E0,-7.913105465E-3,-2.667968015E-3,-3.381444812E-3,9.009409550E-3
8.075339625E0,6.986011150E-3,-1.007548347E-2,-1.595529735E-2,2.012190927E-2
8.085289625E0,8.503372748E-3,3.951895516E-4,-1.805152416E-2,1.995798205E-2
8.095239625E0,-1.129978993E-3,-1.070501389E-2,-3.681991696E-3,1.137678504E-2
8.105188625E0,-5.534471842E-3,-9.823198956E-3,-1.595646679E-2,1.953802572E-2
8.115138625E0,-4.044815996E-3,-1.492910415E-2,-1.251362622E-2,1.989546502E-2
8.125088625E0,2.931181798E-3,-3.176666640E-3,-8.771408200E-3,9.778580648E-3
8.135038625E0,4.355919845E-3,-1.207352503E-2,-6.526077390E-3,1.439908783E-2
8.144988625E0,3.733643624E-3,-7.416626606E-3,-1.430930614E-2,1.654396226E-2
8.154938625E0,2.921871934E-4,-2.244803191E-3,-9.967748523E-3,1.022157157E-2
8.164888625E0,7.030897667E-3,-5.748139608E-3,-6.823700666E-3,1.135946837E-2
8.174838625E0,2.632658598E-3,3.733737271E-3,-6.973974109E-3,8.337145805E-3
8.184788625E0,-2.042391314E-3,2.979697699E-3,-3.882551193E-4,3.633277129E-3
8.194738625E0,-2.958823596E-3,-8.543398767E-4,-6.076426506E-3,6.812304513E-3
8.204688625E0,-2.571267402E-4,4.310112849E-3,-1.730249584E-2,1.783310262E-2
8.214638625E0,-6.696505453E-3,-3.673526938E-3,-1.311179638E-2,1.517422781E-2
8.224588625E0,-2.946147015E-3,-3.318274326E-3,-1.281358838E-2,1.356019078E-2
8.234538625E0,4.018448708E-3,2.890616739E-3,-2.284331739E-2,2.337350518E-2
8.244488625E0,3.306668974E-3,2.418899469E-3,-1.026946485E-2,1.105653846E-2
8.254438625E0,1.509682559E-3,-1.517759711E-2,-8.324680924E-3,1.737638938E-2
8.264387625E0,-1.521673920E-3,-7.402986148E-3,-1.236627638E-2,1.449291161E-2
8.274337625E0,-5.071070865E-3,-5.480259473E-3,-7.127755880E-3,1.032249522E-2
8.284287625E0,2.550468673E-3,-4.320544191E-4,-8.414143324E-4,2.720209468E-3
8.294237625E0,-2.774403328E-3,6.117201699E-3,-2.189197540E-3,7.064704971E-3
8.304191250E0,-4.453650573E-3,-8.315341368E-3,-7.428887486E-3,1.200700940E-2
8.314141250E0,6.034239759E-3,-7.197136749E-3,-9.922724962E-4,9.444333304E-3
8.324091250E0,3.265679078E-3,-2.476316385E-3,-1.596114457E-2,1.647892407E-2
8.334041250E0,1.253606491E-3,1.036540030E-3,-1.551207840E-2,1.559713182E-2
8.343991250E0,2.377194660E-3,-9.157287888E-3,-9.523944855E-3,1.342432499E-2
8.353941250E0,2.510725879E-3,1.478210378E-2,3.199011683E-3,1.533127563E-2
8.363891250E0,5.708586392E-3,-1.247798104E-3,-1.566118240E-2,1.671578873E-2
8.373841250E0,-2.562341262E-3,5.730865197E-4,-5.332075953E-3,5.943488443E-3
8.383791250E0,3.087169980E-3,4.994593395E-3,-7.576822042E-3,9.585656677E-3
8.393741250E0,5.423214859E-3,4.494976227E-3,-1.985012770E-2,2.106284977E-2
8.403691250E0,-2.302039666E-3,-4.926249494E-3,-1.550857008E-2,1.643420416E-2
8.413641250E0,-3.453123453E-3,-2.014950514E-3,-1.161607862E-2,1.228484308E-2
8.423590250E0,-1.286300649E-3,-1.745578425E-2,-2.314152539E-2,2.901532647E-2
8.433540250E0,-1.274976237E-3,-8.240602075E-3,-1.835148633E-2,2.015713614E-2
8.443490250E0,-3.594064191E-3,1.777704307E-3,-1.341234326E-2,1.399887431E-2
8.453440250E0,2.034314848E-3,-4.758948321E-4,-1.101673901E-2,1.121309285E-2
8.463390250E0,5.239324495E-3,-1.003574981E-2,-4.579539299E-3,1.221224695E-2
8.473340250E0,2.826443547E-3,1.714079292E-4,-7.274520993E-3,7.806203910E-3
8.483290250E0,1.997509366E-4,-5.215926496E-3,-4.580124021E-3,6.944301671E-3
8.493240250E0,-3.521549581E-3,-1.297778094E-3,-6.675766110E-3,7.658419719E-3
8.503190250E0,-1.671485980E-3,-1.048720968E-3,-1.137283444E-3,2.277519414E-3
8.513140250E0,5.236245571E-3,1.428449659E-3,-7.124832273E-3,8.956671872E-3
8.523090250E0,7.964049331E-3,3.869084325E-3,-1.475895703E-2,1.721112163E-2
8.533040250E0,-6.379202642E-3,2.982769771E-3,-5.179463625E-3,8.741738116E-3
8.542990250E0,9.197487496E-4,1.299726404E-3,-1.850234449E-2,1.857072907E-2
8.552940250E0,2.016627020E-3,2.679655594E-3,-5.779387951E-3,6.681965559E-3
8.562890250E0,-1.331698797E-3,1.815722629E-3,-1.289311051E-3,2.594724135E-3
8.572840250E0,-9.225490177E-4,3.678896783E-3,-1.116876662E-2,1.179519928E-2
8.582790250E0,-1.899824319E-3,-5.659175136E-3,-3.683745861E-3,7.014668861E-3
8.592739250E0,3.346941671E-3,-6.855789546E-3,-4.281331301E-3,8.748352220E-3
8.602689250E0,-7.540875371E-3,-3.915642779E-3,-8.322342038E-3,1.189363009E-2
8.612639250E0,-2.558869477E-3,-2.068694648E-3,-9.004712105E-5,3.291719768E-3
8.622589250E0,6.404299987E-4,-1.181470122E-2,-6.976312995E-3,1.373558366E-2
8.632539250E0,-2.689975016E-3,-4.426885857E-3,-1.386140943E-2,1.479770101E-2
8.642489250E0,-9.382040240E-5,-1.053202082E-2,-1.056884229E-2,1.492088108E-2
8.652439250E0,-7.181751262E-3,-1.147679840E-2,-5.629114509E-3,1.466224344E-2
8.662389250E0,-2.586666592E-3,-1.023468077E-2,-6.229623556E-3,1.225755865E-2
8.672339250E0,-8.026335882E-3,-1.538539482E-3,-5.332075953E-3,9.758084105E-3
8.682289250E0,-4.893968753E-3,-8.480920354E-3,-3.835188746E-3,1.051596942E-2
8.692239250E0,-4.156671404E-3,-7.888220537E-3,-1.146872878E-2,1.452699832E-2
8.702189250E0,-4.952815496E-3,6.014050876E-3,-1.401343703E-2,1.603357748E-2
8.712139250E0,-7.148609427E-3,4.706780193E-3,-7.278614044E-3,1.123541806E-2
8.722089250E0,-4.214207092E-3,4.205696653E-3,-1.087055862E-2,1.239421117E-2
8.732039250E0,1.191684477E-2,4.065055128E-3,-8.774916530E-3,1.534715031E-2
8.741989250E0,1.206166386E-3,-8.840715978E-5,-8.776085973E-3,8.859025803E-3
8.751939250E0,1.750117326E-3,-8.141471213E-4,-6.928950548E-4,2.050816849E-3
8.761889250E0,2.288865158E-4,-2.984071691E-3,-1.890989542E-3,3.540185636E-3
8.771838250E0,3.855827590E-3,-9.201701602E-3,-7.128925323E-3,1.226214888E-2
8.781788250E0,-5.726018404E-3,-2.520019754E-3,-3.386707306E-3,7.113899964E-3
8.791738250E0,-6.060387776E-3,-1.964730697E-3,-1.536180496E-2,1.663049964E-2
8.801688250E0,1.802769676E-4,-7.302989624E-3,-8.626397252E-3,1.130402082E-2
8.811638250E0,3.100518077E-3,-1.133567950E-2,-1.356670976E-2,1.794899595E-2
8.821588250E0,6.504068105E-4,6.527091516E-4,-2.640017867E-3,2.796203246E-3
8.831538250E0,-5.202971259E-4,-5.797427525E-3,-4.736829400E-3,7.504560465E-3
8.841488250E0,3.141914536E-3,-9.993942222E-4,-1.491566241E-2,1.527571278E-2
8.851438250E0,4.234151579E-3,-3.589212829E-3,-7.132433653E-3,9.037814899E-3
8.861388250E0,2.739443374E-3,1.453224951E-3,-6.683367491E-3,7.367755002E-3
8.871338250E0,-8.156171478E-3,4.530884069E-3,-1.057527423E-2,1.410278230E-2
8.881288250E0,3.271654202E-3,3.800861479E-3,-6.964033842E-4,5.063126196E-3
8.891238250E0,-1.981630521E-3,-1.118768099E-2,-9.528037906E-3,1.482816819E-2
8.901188250E0,-6.862621196E-4,2.881754553E-3,-5.785819888E-3,6.500090521E-3
8.911138250E0,-9.067121996E-3,-9.770937182E-3,-1.297087848E-2,1.859912910E-2
8.921088250E0,-6.902670055E-3,-7.534132800E-3,-7.132433653E-3,1.246120463E-2
8.931038250E0,-3.842273927E-3,-8.590966780E-3,-5.485857725E-3,1.089322790E-2
8.940988250E0,5.272342991E-3,-5.303029453E-3,-2.389757037E-2,2.504023945E-2
8.950938250E0,-1.000559097E-4,-6.048965149E-3,-2.043017149E-3,6.385445140E-3
8.960888250E0,1.319757686E-3,-1.114463315E-3,-5.785235167E-3,6.037610021E-3
8.970837250E0,7.702290500E-3,-7.767409296E-4,-9.675387740E-3,1.239119580E-2
8.980787250E0,3.288784716E-3,-6.856065919E-3,-6.382235885E-3,9.927470961E-3
8.990737250E0,9.079172742E-5,-6.739859360E-3,-8.028811812E-3,1.048311816E-2
9.000687250E0,5.784792057E-3,9.955129044E-3,-7.879123092E-3,1.395166636E-2
9.010637250E0,-3.235570486E-3,-8.260425506E-4,-3.088499308E-3,4.548636129E-3
9.020587250E0,-2.378578805E-3,-3.396674981E-3,-5.633792281E-3,6.995330838E-3
9.030537250E0,-2.953926553E-3,5.015586270E-3,-1.835791826E-2,1.925863315E-2
9.040487250E0,-6.755192312E-3,-1.698481387E-3,-1.371815264E-2,1.538522584E-2
9.050437250E0,-8.543056156E-3,-9.267855082E-3,-1.311881304E-2,1.819286129E-2
9.060387250E0,2.739635236E-3,-6.577526035E-3,-2.455830574E-4,7.129499352E-3
9.070337250E0,-6.281750570E-3,-9.183819629E-3,-2.105231524E-2,2.381182290E-2
9.080287250E0,2.426772653E-3,-1.976379447E-3,-1.431632280E-2,1.465443277E-2
9.090237250E0,-3.097539651E-3,-5.298516133E-3,-1.656106889E-2,1.766176741E-2
9.100187250E0,8.890549787E-3,-3.555246445E-3,-1.656106889E-2,1.912983679E-2
9.110137250E0,3.173032687E-3,6.548173469E-4,-5.184726119E-3,6.113780101E-3
9.120087250E0,1.395195904E-3,-1.092750045E-2,-1.371698320E-2,1.759296637E-2
9.130037250E0,6.617348772E-3,-3.050586053E-3,-1.715982378E-2,1.864282522E-2
9.139987250E0,-3.822777118E-3,-7.911716751E-3,-1.865729570E-2,2.062288946E-2
9.149937250E0,-1.074142652E-3,-4.668841814E-3,-1.087406695E-2,1.188264273E-2
9.159886250E0,-1.011373705E-2,-7.396049432E-3,-5.634961724E-3,1.373834117E-2
9.169836250E0,-7.218305496E-3,4.706803034E-4,-5.933169723E-3,9.355638789E-3
9.179786250E0,-5.042099738E-3,5.124403867E-3,-4.884763956E-3,8.691559335E-3
9.189736250E0,5.016047652E-3,2.160180733E-4,-1.925605059E-2,1.989982116E-2
9.199686250E0,-4.597556032E-3,-2.200677269E-4,-1.326791704E-2,1.404363108E-2
9.209636250E0,-1.520851655E-3,-1.041210950E-3,-2.045356035E-2,2.053643691E-2
9.219586250E0,1.652537347E-3,2.942245826E-4,-1.701188922E-2,1.709449685E-2
9.229536250E0,-4.778175610E-3,-3.255930673E-3,-3.090838194E-3,6.556319658E-3
9.239486250E0,-1.955916476E-3,-7.398714940E-4,-6.083443165E-3,6.432829846E-3
9.249436250E0,5.371763930E-4,-4.613231595E-3,-1.431690753E-2,1.505138882E-2
9.259386250E0,-1.454033512E-3,-3.188189766E-3,3.645154238E-3,5.056274998E-3
9.269336250E0,-2.638830151E-3,-2.665462391E-4,-2.792045474E-3,3.850972526E-3
9.279286250E0,-3.957687914E-3,-4.429489695E-3,-1.342111409E-2,1.467685170E-2
9.289236250E0,1.820092052E-3,-8.488836936E-3,-1.297204792E-2,1.560919969E-2
9.299182375E0,7.220397703E-5,1.095414183E-3,-6.685706377E-3,6.775235450E-3
9.309132375E0,6.521289982E-4,1.232974499E-3,-9.081895351E-3,9.188379700E-3
9.319082375E0,-3.710062900E-3,-3.480783524E-4,-1.177629232E-2,1.235179283E-2
9.329032375E0,3.817135468E-5,1.363570690E-3,-5.489950776E-3,5.656884443E-3
9.338982375E0,2.509369142E-4,2.285032491E-3,1.393976212E-3,2.688403336E-3
9.348932375E0,9.379326766E-3,4.757806286E-3,-9.233922958E-3,1.399549300E-2
9.358882375E0,-1.101103798E-4,1.594391812E-3,-7.438243032E-3,7.608000325E-3
9.368832375E0,2.016302682E-3,1.192662972E-3,-1.118046105E-2,1.142324957E-2
9.378781375E0,-9.237230290E-4,-6.655775942E-6,-7.587931752E-3,7.643952957E-3
9.388731375E0,-5.068846182E-3,-4.537375392E-3,-6.091629267E-3,9.131753621E-3
9.398681375E0,-6.589560793E-3,-2.210183563E-3,-1.492326379E-2,1.646241249E-2
9.408631375E0,1.664414504E-3,-8.789689885E-3,-1.282703698E-2,1.563847184E-2
9.418581375E0,-1.893264474E-4,5.916521146E-3,-5.043808222E-3,7.776957526E-3
9.428531375E0,3.505241331E-3,8.165225526E-4,-6.989761591E-3,7.861945876E-3
9.438481375E0,-2.956270007E-4,-1.064582454E-2,-1.147983849E-2,1.565910812E-2
9.448431375E0,-8.443310880E-3,-9.215522502E-3,7.952213287E-4,1.252388640E-2
9.458381375E0,-8.997512721E-3,3.953693078E-3,-1.252707481E-2,1.592213954E-2
9.468331375E0,-2.290555369E-3,-6.603242364E-4,-1.222711265E-2,1.245732539E-2
9.478281375E0,6.390773733E-3,-7.975531344E-3,-7.736451030E-3,1.281810297E-2
9.488231375E0,-4.297146192E-3,-2.408054711E-3,-1.117929161E-2,1.221641329E-2
9.498181375E0,5.542338174E-4,5.804409923E-3,-8.635168076E-3,1.041942788E-2
9.508131375E0,2.467799094E-3,4.258643647E-3,-9.235092402E-3,1.046484638E-2
9.518081375E0,-7.801149557E-3,-1.815343474E-3,-1.267793298E-2,1.499611253E-2
9.528031375E0,1.264675087E-3,-1.045319990E-2,-1.058170617E-2,1.492786979E-2
9.537981375E0,2.794174226E-3,-1.999804855E-3,-1.731828332E-2,1.765586492E-2
9.547931375E0,-1.298716846E-3,5.791027565E-3,-1.451278925E-3,6.109736182E-3
9.557881375E0,-7.901813029E-3,2.080210922E-3,-8.636337519E-3,1.188916534E-2
9.567831375E0,6.256570998E-3,1.066607738E-2,-1.866548181E-2,2.238995530E-2
9.577781375E0,2.335204342E-3,5.107588554E-3,4.985336065E-3,7.509608235E-3
9.587731375E0,-8.374820799E-3,-5.780365532E-3,-8.785441518E-3,1.344374322E-2
9.597681375E0,-1.511992666E-2,-5.149987719E-3,-8.935714960E-3,1.830250141E-2
9.607631375E0,-1.182425776E-3,-9.026970353E-3,-7.887893915E-3,1.204587875E-2
9.617580375E0,3.012088076E-3,-2.196129689E-3,-1.028291345E-2,1.093773144E-2
9.627530375E0,6.107896403E-3,-9.373694253E-3,-1.597050011E-2,1.949947220E-2
9.637480375E0,-5.755487457E-3,-1.371470370E-2,-1.686804771E-2,2.248888097E-2
9.647430375E0,-2.164652939E-3,-4.164923744E-3,-1.327434897E-2,1.407979591E-2
9.657380375E0,1.114990935E-4,4.362356351E-3,-1.402279258E-2,1.468609195E-2
9.667330375E0,-1.435331558E-3,3.847938417E-3,-1.821349204E-2,1.867078196E-2
9.677280375E0,-1.863841102E-3,4.332140407E-3,-6.388667822E-3,7.940807308E-3
9.687230375E0,-3.517602710E-3,-5.686325859E-4,-3.843959570E-3,5.241459436E-3
9.697180375E0,-4.038539375E-3,6.249074684E-4,-6.388667822E-3,7.583889910E-3
9.707130375E0,4.512680043E-4,-3.722447120E-3,-7.436488867E-3,8.328362506E-3
9.717080375E0,-2.810363704E-4,-7.160440902E-4,-1.776501060E-2,1.778165634E-2
9.727030375E0,-9.784081997E-3,-1.289295520E-2,-1.671660483E-2,2.326803454E-2
9.736980375E0,-1.486846441E-3,-2.443996815E-3,-1.192656577E-2,1.226486053E-2
9.746930375E0,1.122345636E-4,7.944856302E-3,-2.135695517E-2,2.278712076E-2
9.756880375E0,-1.481355540E-4,1.059387568E-3,4.981827736E-4,1.180013660E-3
9.766830375E0,4.866884267E-3,-1.584769031E-3,-9.081895351E-3,1.042491624E-2
9.776780375E0,1.880857414E-3,1.761747804E-4,-6.088120937E-3,6.374470857E-3
9.786730375E0,-4.364316082E-3,-2.057626052E-4,-7.735281587E-3,8.883927866E-3
9.796680375E0,-1.021203880E-2,-2.653254045E-3,-2.496176362E-3,1.084234245E-2
9.806630375E0,-4.566337382E-3,-6.083445449E-3,2.292693257E-3,7.944569717E-3
9.816580375E0,-1.972567337E-3,5.875809907E-3,-1.192831993E-2,1.344250648E-2
9.826530375E0,1.456582532E-3,4.405511543E-4,-6.838903427E-3,7.006162864E-3
9.836480375E0,-9.557388187E-3,-7.217359892E-4,-4.742091894E-3,1.069354980E-2
9.846429375E0,-1.826058039E-3,-6.568501680E-4,-1.746563315E-2,1.757311246E-2
9.856379375E0,3.389119282E-3,-2.589957935E-3,-1.537057579E-2,1.595144544E-2
9.866329375E0,-4.629733991E-3,6.347876641E-3,-1.147866905E-2,1.391006175E-2
9.876279375E0,-6.680809334E-4,-8.906042625E-3,-1.297555625E-2,1.575211057E-2
9.886229375E0,3.463876848E-3,-5.822230226E-3,-1.028057456E-2,1.231206810E-2
9.896179375E0,-1.924926233E-3,-4.993592973E-3,-1.881341636E-2,1.955980437E-2
9.906129375E0,-8.539949823E-4,2.882291309E-3,-1.522147179E-2,1.551547982E-2
9.916079375E0,-2.681999048E-3,3.331268393E-3,2.141835093E-3,4.783087451E-3
9.926029375E0,-8.595315646E-4,-6.987897791E-3,6.632496715E-3,9.672617160E-3
9.935979375E0,-4.237938565E-3,-3.059087356E-3,-1.237855554E-2,1.343676955E-2
9.945929375E0,-6.456417865E-3,-2.927810512E-3,-8.338714242E-3,1.094493313E-2
9.955879375E0,-6.053001098E-3,2.681316112E-3,-6.842411757E-3,9.520865351E-3
9.965829375E0,-9.582110946E-3,-3.326133806E-3,-5.795175433E-3,1.168178388E-2
9.975779375E0,-3.226781390E-3,-9.787466987E-3,-1.178330898E-2,1.565416873E-2
9.985729375E0,-4.489345998E-3,-3.666000932E-3,-1.013790250E-2,1.167779334E-2
9.995679375E0,-7.655151892E-3,-5.609293361E-3,-4.081356525E-4,9.499057701E-3
1.000562938E1,-5.562163889E-3,-1.206875817E-2,-4.298872948E-3,1.396685002E-2
1.001557938E1,-5.382046807E-3,3.164312113E-3,-1.807023525E-2,1.911838647E-2
1.002552938E1,6.284340704E-4,4.802046411E-3,-1.075887680E-4,4.844187699E-3
1.003547938E1,1.211182200E-3,-9.731571260E-4,3.335251808E-3,3.679388772E-3
1.004542938E1,-4.424190656E-3,6.378535694E-3,-1.343046963E-2,1.551246902E-2
1.005537938E1,-1.793916626E-3,-5.356851246E-3,-6.395099759E-3,8.532953361E-3
1.006532938E1,9.845386399E-4,5.616570404E-4,-1.073548794E-2,1.079515985E-2
1.007527938E1,-5.782645033E-3,-2.201700532E-3,-2.151366055E-2,2.238580039E-2
1.008522938E1,-1.979629677E-3,-1.498150297E-3,-1.852047086E-2,1.868612396E-2
1.009517937E1,-6.719738999E-3,-7.051216741E-4,-9.538562894E-3,1.168915185E-2
1.010512837E1,-7.099296385E-3,-3.316216380E-3,-1.507763028E-2,1.699212274E-2
1.011507838E1,-1.623840309E-3,1.644860592E-3,-4.748523831E-3,5.281183797E-3
1.012502838E1,-1.640911438E-2,1.689982368E-3,-1.358015835E-2,2.136669782E-2
1.013497838E1,-7.043830063E-3,-1.932219265E-3,-1.627514005E-2,1.783897970E-2
1.014492837E1,6.264971802E-4,-8.155700960E-3,-7.893156409E-3,1.136705217E-2
1.015487838E1,-4.095229958E-3,-1.222863156E-2,-6.845335364E-3,1.460030665E-2
1.016482838E1,-5.500037223E-6,9.420595318E-4,-1.418066740E-2,1.421192578E-2
1.017477838E1,-4.746125559E-3,-2.126936114E-3,-1.343163908E-2,1.440341950E-2
1.018472837E1,2.762649511E-3,-6.078801937E-3,-9.838525057E-3,1.189035915E-2
1.019467838E1,7.042811369E-3,3.692525821E-3,-1.178447843E-2,1.421653512E-2
1.020462838E1,-5.608585300E-3,4.855573559E-3,-2.316023648E-2,2.431932107E-2
1.021457838E1,-5.313355727E-3,-9.741207745E-3,-9.239770174E-3,1.443939854E-2
1.022452838E1,-3.977061384E-3,-4.824409727E-3,-1.455956697E-3,6.419638337E-3
1.023447838E1,-6.309629912E-3,1.839481511E-3,-9.688251615E-3,1.170714915E-2
1.024442838E1,-9.101579455E-3,-6.031215652E-3,-1.208502531E-2,1.628687040E-2
1.025437838E1,-7.799692322E-3,-4.850082658E-4,-7.145297527E-3,1.058894282E-2
1.026432838E1,-3.042973252E-3,-6.780801290E-3,-7.444674969E-3,1.051960730E-2
1.027427837E1,-7.152583706E-3,2.152556512E-3,-1.073841155E-2,1.308076587E-2
1.028422838E1,1.858076113E-3,-5.499356571E-3,-1.088868499E-2,1.233932050E-2
1.029417838E1,-4.348263647E-3,-3.441017889E-3,-8.601254225E-4,5.611400592E-3
1.030412863E1,3.265199424E-3,2.061307970E-3,-1.283580780E-2,1.340404714E-2
1.031407863E1,-8.338549789E-3,-2.046242254E-3,-1.208736420E-2,1.482642550E-2
1.032402863E1,1.825235775E-3,-7.729279054E-3,-3.555107117E-3,8.701265824E-3
1.033397863E1,-1.099413587E-4,1.653291089E-3,-1.253584564E-2,1.264487581E-2
1.034392863E1,-4.843417746E-3,-7.817000994E-3,-2.001969695E-2,2.203071642E-2
1.035387862E1,-3.372591762E-3,-7.271727577E-3,-6.396853924E-3,1.025534677E-2
1.036382863E1,-1.206403929E-3,-6.671691332E-3,-1.105123758E-4,6.780788203E-3
1.037377763E1,-5.109735578E-3,-2.826030131E-3,-4.601758718E-3,7.434515942E-3
1.038372763E1,-2.563063027E-3,-5.169452552E-3,-2.001969695E-2,2.083460577E-2
1.039367763E1,-1.036460088E-3,-2.306635212E-3,-1.298432708E-2,1.322828655E-2
1.040362762E1,2.793187508E-4,-2.566464006E-3,-8.942731619E-3,9.307910897E-3
1.041357763E1,-2.197735389E-3,-3.981894474E-3,-2.630662322E-2,2.669689026E-2
1.042352763E1,-2.693551867E-3,-2.133601026E-3,-1.043961883E-2,1.099059217E-2
1.043347763E1,-9.323650310E-3,-6.166400537E-3,-1.313401580E-2,1.724695108E-2
1.044342762E1,5.709806085E-4,2.569440147E-3,-2.959860563E-2,2.971540841E-2
1.045337763E1,-8.418240943E-3,-1.769858531E-3,-8.343392015E-3,1.198379615E-2
1.046332763E1,-5.235226876E-3,-7.864061943E-3,-1.268378019E-2,1.581547820E-2
1.047327763E1,6.227184171E-3,-6.825436559E-3,-1.028817594E-2,1.382790552E-2
1.048322763E1,-2.348981844E-4,4.724463453E-3,-1.148568571E-2,1.242162261E-2
1.049317763E1,-8.311798777E-3,-2.980869426E-4,4.830384851E-3,9.618080502E-3
1.050312763E1,-5.634568864E-3,3.030970471E-3,-1.642599821E-2,1.762806188E-2
1.051307763E1,-4.120290759E-3,2.806777717E-4,-5.049070716E-3,6.522935769E-3
1.052302763E1,-7.704739021E-3,-3.642749113E-3,-1.088693082E-2,1.382598594E-2
1.053297763E1,-2.107391339E-3,-1.236829778E-2,-9.988213778E-3,1.603684205E-2
1.054292763E1,-8.999403929E-3,-4.671354289E-3,-1.432918668E-2,1.755381477E-2
1.055287763E1,-2.847530069E-3,-4.327663633E-3,-1.417949796E-2,1.509620026E-2
1.056282763E1,2.890333515E-3,-1.446420711E-3,-9.987629056E-3,1.049756614E-2
1.057277762E1,1.949863695E-4,-3.188799613E-3,-1.582431972E-2,1.614359183E-2
1.058272763E1,2.640972608E-3,5.872340407E-4,-7.592024803E-3,8.059678700E-3
1.059267763E1,-1.790545341E-3,6.328455205E-3,-1.567521572E-2,1.699905250E-2
1.060262763E1,-1.153345015E-3,9.605947486E-4,-7.592609525E-3,7.739552079E-3
1.061257762E1,-2.180499807E-3,-8.313278854E-4,-9.839109778E-3,1.011206046E-2
1.062252763E1,-1.436446183E-3,-1.517707178E-2,-1.792230070E-2,2.352904052E-2
1.063247763E1,2.791830772E-3,5.200938438E-3,-5.199344158E-3,7.866209975E-3
1.064242763E1,-2.078365395E-4,1.732180535E-3,-3.103702068E-3,3.560423003E-3
1.065237663E1,-5.225432790E-3,3.505784939E-3,-1.567755461E-2,1.689323517E-2
1.066232662E1,-1.278827633E-2,4.345527333E-3,-1.597810149E-2,2.092183899E-2
1.067227663E1,-1.551147541E-3,1.240324632E-3,-5.799268484E-3,6.129924864E-3
1.068222663E1,-8.626621091E-3,-1.266938599E-3,-2.570845306E-2,2.714679140E-2
1.069217663E1,4.224773194E-3,3.717958925E-3,-5.500475764E-3,7.869381217E-3
1.070212663E1,-2.941619991E-3,3.349538657E-3,-2.091841400E-2,2.138814114E-2
1.071207663E1,-5.539323203E-5,4.232534459E-3,-5.350202322E-3,6.822175697E-3
1.072202663E1,-3.160301289E-3,-4.319653404E-4,3.379690647E-4,3.207541329E-3
1.073197663E1,-5.829760800E-3,5.459266598E-3,-1.313401580E-2,1.537179475E-2
1.074192663E1,-9.842385133E-3,-8.096676059E-3,-2.061728239E-2,2.423842077E-2
1.075187662E1,-1.121660415E-4,-6.024879646E-3,-8.191949129E-3,1.016955193E-2
1.076182663E1,-2.319380315E-4,-2.681873424E-3,-1.073607266E-2,1.106840081E-2
1.077177663E1,-5.129195843E-3,2.509556436E-3,-1.747148037E-2,1.838094529E-2
1.078172663E1,-2.779592732E-3,-3.567692335E-3,-1.552494228E-2,1.617029366E-2
1.079167662E1,5.599544956E-3,-2.360452437E-3,-1.238147914E-2,1.379230457E-2
1.080162663E1,1.809183341E-3,-1.841400128E-3,-1.298023403E-2,1.323443894E-2
1.081157663E1,-4.225371620E-3,-1.072986913E-2,-3.699533343E-3,1.211075571E-2
1.082152663E1,-9.410170829E-3,1.106813969E-3,-3.998326063E-3,1.028411219E-2
1.083147662E1,-5.119150509E-3,-3.089721284E-3,-1.687331021E-2,1.790141550E-2
1.084142663E1,-3.866101331E-3,7.275210782E-3,7.524781823E-3,1.115785700E-2
1.085137663E1,-2.794594495E-3,-1.706123881E-3,-5.798099041E-3,6.658721317E-3
1.086132663E1,8.463657363E-3,5.974511364E-3,-4.899381995E-3,1.146002731E-2
1.087127662E1,3.517620983E-3,-2.983827295E-3,-1.477825284E-2,1.548139657E-2
1.088122663E1,4.343613284E-4,6.540777655E-3,-7.143543363E-3,9.695393436E-3
1.089117663E1,-6.703458158E-3,-4.207174445E-3,-1.851988614E-2,2.014008070E-2
1.090112663E1,-7.762503116E-3,9.451192701E-3,-1.417891324E-2,1.872493201E-2
1.091107663E1,2.382096271E-3,3.682528452E-3,-1.687389493E-2,1.743455559E-2
1.092102663E1,-3.367215064E-3,-8.297189875E-3,-7.444090247E-3,1.164456855E-2
1.093097663E1,-5.343240481E-3,-3.712913417E-3,-1.755918860E-3,6.739376523E-3
1.094092663E1,-3.400292946E-4,3.101993585E-3,-8.791873455E-3,9.329256293E-3
1.095087663E1,-2.664206154E-3,2.690495783E-3,-1.223471403E-2,1.280722411E-2
1.096082662E1,6.534172129E-4,-1.781578087E-3,-5.797514319E-3,6.100175966E-3
1.097077562E1,-4.513365263E-4,-8.327517738E-3,-8.641015291E-3,1.200909662E-2
1.098072563E1,2.466953988E-3,1.811136219E-3,-1.028817594E-2,1.073371513E-2
1.099067563E1,3.380663660E-3,-3.180127004E-3,-1.417949796E-2,1.491979413E-2
1.100062563E1,1.027210067E-2,-8.061875990E-3,-2.708781123E-1,2.711926651E-1
1.101057562E1,-6.998175643E-2,2.218296803E-2,3.169377995E-1,3.253292164E-1
1.102052563E1,-1.737054281E-2,1.385913449E-2,-4.561763763E-2,5.074229232E-2
1.103047563E1,-2.999374037E-2,-3.296363256E-3,-5.820493877E-2,6.556146253E-2
1.104042563E1,-2.729002439E-2,-1.951241216E-2,1.077881581E-1,1.128882929E-1
1.105037562E1,1.083464758E-1,-5.152583792E-2,-3.117641830E-1,3.340520568E-1
1.106032563E1,8.024180635E-2,3.586431747E-2,1.576567215E-1,1.805010764E-1
1.107027563E1,1.788292993E0,5.368620320E-1,2.683930457E-2,1.867333130E0
1.108022563E1,2.994246869E0,1.395574986E0,-1.217822993E-1,3.305748748E0
1.109017562E1,2.418489524E-1,-3.219506905E-1,1.020169562E-1,4.153921307E-1
1.110012563E1,1.342336801E-1,-6.371657541E-1,-3.803730726E-2,6.522619993E-1
1.111007563E1,7.141503415E-1,-8.675473664E-1,-5.020068526E-2,1.124797427E0
1.112002563E1,-5.809228851E-2,-1.292403351E0,8.373937869E-1,1.541074135E0
1.112997563E1,-7.484569790E-1,-6.412642137E-1,9.855826968E-1,1.393836753E0
1.113992563E1,-1.612963647E0,1.173678123E0,-5.630868673E-1,2.072737051E0
1.114987563E1,-1.824181156E0,3.932552196E0,-6.415132320E-1,4.382253175E0
1.115982563E1,-2.816335685E0,1.603418068E0,2.541803940E0,4.118672536E0
1.116977563E1,-1.659115428E0,-2.506270995E0,7.558099258E-1,3.099242964E0
1.117972562E1,-6.060701150E-2,-2.154945574E0,1.088596603E0,2.415058219E0
1.118967563E1,2.201356241E0,-1.372547811E-1,2.297967446E-1,2.217569552E0
1.119962563E1,1.494701810E0,4.239225135E-1,-5.596902198E-1,1.651392425E0
1.120957563E1,1.236262772E0,-3.594743930E-1,8.659205979E-1,1.551575316E0
1.121952562E1,3.336326599E-1,8.547051997E-1,2.992754075E0,3.130240994E0
1.122947563E1,1.307855861E-1,2.544443081E0,3.687492757E0,4.482064066E0
1.123942563E1,-4.402872987E-2,3.775483997E0,4.002699196E0,5.502528400E0
1.124937563E1,-7.298880494E-1,4.865649116E0,2.321192002E0,5.440147993E0
1.125932562E1,-2.706516789E0,4.375693667E0,2.224146348E-1,5.149892860E0
1.126927563E1,-5.069951123E0,-2.150331098E-1,-1.676506070E0,5.344278832E0
1.127922563E1,-2.702671368E0,-4.462602295E0,-7.518259254E0,9.151146047E0
1.128917563E1,-6.029826755E-1,-7.626432159E0,-5.563621016E0,9.459383404E0
1.129912913E1,6.800702105E-1,-2.178824287E0,8.375633562E-1,2.431313049E0
1.130907813E1,-3.843148634E-1,1.530690545E0,1.390185462E0,2.103170720E0
1.131902812E1,-9.161390441E-1,9.590274938E-1,2.571843426E0,2.893686764E0
1.132897813E1,-7.903373688E-1,-2.847191296E-1,4.668408791E0,4.743388955E0
1.133892813E1,9.125823290E-1,-9.796055268E-1,5.512441506E0,5.672692910E0
1.134887813E1,2.041502720E0,-7.684919518E-1,4.583220121E0,5.075846719E0
1.135882812E1,2.361021773E0,1.131148692E0,2.672806714E0,3.741365647E0
1.136877813E1,1.328738534E0,8.061870508E-1,2.165463692E0,2.665467436E0
1.137872813E1,-4.036061069E-1,4.374174122E-2,5.420075964E0,5.435258475E0
1.138867813E1,-1.217377143E0,-4.944653331E-1,4.987082044E0,5.157275481E0
1.139862812E1,3.285630874E-1,-2.672376359E0,2.627124757E0,3.761825832E0
1.140857813E1,2.637256227E0,-4.354124458E0,3.123652768E-1,5.100107084E0
1.141852813E1,3.397134061E0,-3.363450883E0,-1.647876348E0,5.056561888E0
1.142847813E1,3.049182045E0,-1.401546455E0,-1.265843251E0,3.586670147E0
1.143842812E1,1.993722197E0,-1.111538154E-1,-4.360578614E-1,2.043876178E0
1.144837813E1,7.337697235E-1,-5.414083153E-2,3.647633457E-1,8.212195414E-1
1.145832813E1,-6.982136822E-1,6.530258149E-1,2.659189718E0,2.825815814E0
1.146827813E1,-1.645996761E0,2.254803300E-1,4.432666597E0,4.733780717E0
1.147822813E1,-1.233542063E0,-3.193986002E-1,4.715176576E0,4.884314857E0
1.148817813E1,2.983687967E-1,-2.092431384E0,2.596582410E0,3.348064105E0
1.149812813E1,3.718611639E0,-2.954422360E0,3.315317481E0,5.792064744E0
1.150807813E1,5.730064933E0,-3.159329262E0,1.408367379E0,6.693168472E0
1.151802813E1,5.275689499E0,-2.046802929E0,-3.215997845E-1,5.667956275E0
1.152797812E1,4.884748169E0,-2.054518037E0,-1.584786061E0,5.531126097E0
1.153792813E1,5.262856615E-1,-1.470691681E0,-6.421799315E0,6.609040555E0
1.154787813E1,-2.586094260E0,4.980985737E-1,-3.035367998E0,4.018637156E0
1.155782813E1,-4.067291048E0,3.571298057E-1,-2.560614433E0,4.819454787E0
1.156777812E1,-3.346401864E0,8.949771667E-1,-2.569756554E0,4.313123962E0
1.157772813E1,-2.413728867E0,1.442380632E0,-2.545604630E0,3.792974013E0
1.158767813E1,-1.164285302E0,8.246939269E-1,-1.978562121E0,2.439341797E0
1.159762813E1,-1.953262389E-1,-2.039678389E-1,-1.467199139E0,1.494131364E0
1.160757812E1,-6.162234396E-1,-1.008208205E0,9.113002539E-2,1.185124379E0
1.161752813E1,-9.451369214E-1,-9.152912709E-1,1.724873946E0,2.169385176E0
1.162747813E1,-3.739183313E-1,-1.127631153E0,1.228076085E0,1.708665505E0
1.163742813E1,5.346541965E-1,-1.614597505E0,1.764171621E0,2.450526825E0
1.164737812E1,1.638138980E0,-2.799314148E0,1.990140193E0,3.805301171E0
1.165732813E1,2.717502830E0,-3.703472028E0,3.112636614E-1,4.604064700E0
1.166727813E1,2.947529370E0,-3.541499476E0,-1.246303026E0,4.773198002E0
1.167722813E1,2.857484588E0,-2.368146605E0,-2.607689196E0,4.535788736E0
1.168717813E1,2.834502107E0,-7.908505350E-1,-4.040451744E0,4.998509483E0
1.169712813E1,1.391516288E0,1.266196423E0,-4.425051184E0,4.808393592E0
1.170707813E1,-1.202416749E0,3.186253351E0,-4.022470971E0,5.270511281E0
1.171702713E1,-3.501479378E0,5.272251921E0,-5.957340943E0,8.691772504E0
1.172697713E1,-5.157038968E0,5.848744115E0,-5.709545299E0,9.664458917E0
1.173692713E1,-3.785524251E0,2.456041659E0,5.664459758E0,7.242129440E0
1.174687712E1,-1.300847608E0,8.147811422E-1,5.228735772E0,5.449380753E0
1.175682713E1,1.752939704E-1,-4.878761789E-1,-3.904150808E-1,6.489800284E-1
1.176677713E1,9.764715654E-1,-1.200636272E0,-3.168282226E0,3.526051111E0
1.177672713E1,1.054842089E0,-7.939792340E-1,-3.897452822E0,4.115001016E0
1.178667712E1,7.269919235E-1,-3.665391451E-1,-3.411494823E0,3.507301687E0
1.179662713E1,1.360939443E-3,-2.867180733E-1,-1.520847343E0,1.547638764E0
1.180657713E1,-1.216124084E0,2.049232739E-1,1.215471243E0,1.731566250E0
1.181652713E1,-2.385999032E0,1.142509247E0,3.537371342E0,4.417161393E0
1.182647712E1,-2.238010097E0,1.190593094E0,3.521327167E0,4.338887660E0
1.183642713E1,-1.232286665E0,4.352616169E-1,1.678869515E0,2.127577484E0
1.184637713E1,-5.742778534E-1,-7.072941157E-1,5.282169968E-1,1.053125451E0
1.185632713E1,-3.507127789E-1,-1.100788633E0,4.236833990E-1,1.230545688E0
1.186627713E1,-7.711126739E-1,-1.153628459E0,2.525342858E0,2.881463158E0
1.187622713E1,-1.162774089E0,-1.239260640E0,4.626914610E0,4.929112427E0
1.188617713E1,-1.303050254E0,-2.025634546E0,3.690378942E0,4.406816540E0
1.189612713E1,-1.518100613E0,-2.887672593E0,2.466993493E0,4.090151510E0
1.190607713E1,-2.827889198E0,-4.653760931E0,4.242989938E0,6.903434778E0
1.191602713E1,-4.034701007E0,-5.041421388E0,3.065149037E0,7.147718548E0
1.192597713E1,-4.153457957E0,-3.431310452E0,-1.416657561E-1,5.389357439E0
1.193592713E1,-4.544780233E0,-2.304129826E0,-1.518007350E0,5.316802417E0
1.194587713E1,-3.780709069E0,-2.235094382E0,-5.753243296E0,7.238039540E0
1.195582712E1,-2.105586742E0,-1.635286124E0,-7.431038092E0,7.894807367E0
1.196577713E1,-1.088327851E0,-1.032426203E0,-3.238428349E0,3.569002598E0
1.197572713E1,-1.529708542E-1,3.666291922E-2,-6.241551876E-2,1.692334153E-1
1.198567713E1,-1.131489219E0,4.250574946E-1,1.249537706E0,1.738472377E0
1.199562712E1,-2.786891738E0,8.744335592E-1,4.478659626E0,5.346942272E0
1.200557713E1,-3.568350475E0,1.334710880E0,7.348537973E0,8.277414366E0
1.201552713E1,-2.758076367E0,2.360803087E0,6.739353411E0,7.655015406E0
1.202547713E1,-2.722594585E0,3.223030584E0,3.989274573E0,5.806441168E0
1.203542712E1,-2.747633532E0,3.537126929E-1,3.215109653E0,4.243999620E0
1.204537713E1,-2.712717761E0,-4.631775400E-1,2.597034985E0,3.783908270E0
1.205532713E1,-2.238726380E0,6.467768955E-1,3.652480799E-1,2.358733202E0
1.206527713E1,-1.284661638E0,1.710898224E-1,-1.099995750E-1,1.300664122E0
1.207522713E1,-2.435164687E-1,-1.700305992E-1,5.340548569E-1,6.110853176E-1
1.208517713E1,2.138127082E0,-2.932618386E-1,1.923762016E0,2.891098445E0
1.209512713E1,4.512570261E0,-1.688822061E-1,1.440483211E0,4.739915974E0
1.210507713E1,4.814785064E0,1.007957652E-1,1.040437181E0,4.926948805E0
1.211502713E1,3.716800171E0,9.837911099E-1,1.369378729E0,4.081378023E0
1.212497713E1,1.856867677E0,4.477072692E-1,9.391049337E-1,2.128454238E0
1.213492713E1,3.561777693E-1,6.155153418E-1,1.080015230E0,1.293118183E0
1.214487713E1,-5.842051830E-2,5.176791447E-1,1.323786235E0,1.422608396E0
1.215482713E1,2.080410459E-1,2.582370168E-1,1.249771594E0,1.293018357E0
1.216477712E1,5.977700655E-1,-1.895971370E-1,1.289547864E0,1.433949029E0
1.217472713E1,9.288477480E-1,-4.511717445E-1,1.803675994E0,2.078355401E0
1.218467713E1,1.401406415E0,-7.608946645E-1,2.041838935E0,2.590754111E0
1.219462713E1,1.511761354E0,-1.014960862E0,2.236896202E0,2.884314921E0
1.220457712E1,1.167531822E0,-1.536089280E0,2.063967723E0,2.825360789E0
1.221452713E1,3.370172842E-1,-1.323551762E0,2.184160749E0,2.576029521E0
1.222447713E1,5.576781929E-5,-2.104667852E0,1.934678183E0,2.858777089E0
1.223442713E1,-1.079482256E-1,-2.809894100E0,1.976435489E0,3.437070688E0
1.224437712E1,-3.914735730E-1,-2.693501764E0,2.736112763E0,3.859341442E0
1.225432713E1,-5.868362108E-1,-3.080901436E0,3.653252631E0,4.814829715E0
1.226427713E1,-6.512238492E-1,-3.658180080E0,4.531498575E0,5.860106939E0
1.227422713E1,-7.975570721E-1,-4.472345803E0,4.786458812E0,6.599103138E0
1.228417712E1,-5.331184253E-1,-5.954192802E0,4.611042343E0,7.549724410E0
1.229412713E1,-7.196415348E-1,-6.155648677E0,4.705585388E0,7.781544089E0
1.230407950E1,-1.137583991E0,-6.517061568E0,4.475484588E0,7.987249283E0
1.231402950E1,-1.744739861E0,-7.271188080E0,4.421277683E0,8.686886072E0
1.232397950E1,-2.785797724E0,-7.674491594E0,4.058569049E0,9.117591398E0
1.233392850E1,-3.887866897E0,-7.744712561E0,3.689549807E0,9.418538073E0
1.234387850E1,-4.342002010E0,-8.078878596E0,3.305278104E0,9.749160178E0
1.235382850E1,-3.773681885E0,-9.299315879E0,3.098171187E0,1.050317169E1
1.236377850E1,-2.992426046E0,-1.032823405E1,2.739775459E0,1.109654909E1
1.237372850E1,-2.057069470E0,-1.126656715E1,3.246759462E0,1.190413865E1
1.238367850E1,-2.172878254E0,-1.113297698E1,3.138940898E0,1.176934689E1
1.239362850E1,-2.603594099E0,-1.064280957E1,2.593728969E0,1.125946392E1
1.240357850E1,-2.303504759E0,-1.033507529E1,2.303243973E0,1.083627464E1
1.241352850E1,-1.645143068E0,-1.032953914E1,1.246764371E0,1.053376932E1
1.242347850E1,-1.313272941E0,-9.366510327E0,1.197463865E0,9.533631063E0
1.243342850E1,-1.369364696E0,-8.707965326E0,6.764275414E-1,8.840892150E0
1.244337850E1,-1.359707727E0,-8.680698005E0,-3.567035437E-1,8.793779641E0
1.245332850E1,-1.609483238E0,-8.099637966E0,-2.028683285E0,8.503536167E0
1.246327850E1,-1.782876279E0,-7.625087299E0,-3.735159844E0,8.675945090E0
1.247322850E1,-1.784751481E0,-6.994898955E0,-5.929878910E0,9.342238121E0
1.248317850E1,-1.055860382E0,-5.478783179E0,-6.615269063E0,8.654114111E0
1.249312850E1,-1.610048372E-1,-4.024840263E0,-6.605707111E0,7.736965047E0
1.250307850E1,1.306914094E0,-3.560002698E0,-6.566912005E0,7.583269542E0
1.251302850E1,2.134785106E0,-4.187041440E0,-7.409104017E0,8.774021074E0
1.252297850E1,1.864345534E0,-3.434212717E0,-8.640378529E0,9.482918453E0
1.253292850E1,1.840990586E0,-3.053277435E0,-9.123411752E0,9.795324978E0
1.254287850E1,1.836120440E0,-3.849415314E0,-7.725443062E0,8.824500384E0
1.255282850E1,1.427649742E0,-3.863988915E0,-5.059494547E0,6.524345116E0
1.256277850E1,1.307402337E0,-3.923288160E0,-3.075749454E0,5.153806900E0
1.257272850E1,1.543770767E0,-3.831401797E0,-2.107914811E0,4.637474826E0
1.258267850E1,1.776694018E0,-3.504740955E0,-2.350389488E0,4.578665913E0
1.259262850E1,2.034984244E0,-3.130760643E0,-3.276993075E0,4.968048580E0
1.260257850E1,2.083765225E0,-2.601207558E0,-4.207292687E0,5.367464022E0
1.261252850E1,2.015630545E0,-2.260684283E0,-4.673786475E0,5.569357228E0
1.262247850E1,1.822878250E0,-2.016992508E0,-4.398113646E0,5.170546154E0
1.263242850E1,1.612011282E0,-2.165715561E0,-3.588171952E0,4.490421163E0
1.264237850E1,1.517199265E0,-1.719518627E0,-2.480120493E0,3.377815208E0
1.265232850E1,1.503809726E0,-1.818754209E0,-2.131959731E0,3.180340054E0
1.266227850E1,1.367092468E0,-1.952621826E0,-1.783385571E0,2.976934314E0
1.267222850E1,1.208769164E0,-1.917284909E0,-1.672264500E0,2.816659879E0
1.268217850E1,1.076532628E0,-1.778191490E0,-1.455020558E0,2.537315963E0
1.269212850E1,1.106437043E0,-1.552041361E0,-7.069412363E-1,2.032929224E0
1.270207850E1,1.106201400E0,-1.234553631E0,-2.431126088E-1,1.675382925E0
1.271202850E1,1.124174572E0,-8.888010451E-1,-2.535756165E-1,1.455347504E0
1.272197850E1,1.330498254E0,-6.379768360E-1,-4.820275015E-1,1.552285592E0
1.273192850E1,1.657081620E0,-6.674277994E-1,-8.214712340E-1,1.966264059E0
1.274187850E1,1.742956168E0,-3.339385790E-1,-5.933245736E-1,1.871214907E0
1.275182850E1,1.756526971E0,-3.615403605E-1,-2.282314450E-1,1.807813050E0
1.276177850E1,1.576401154E0,-3.647370332E-1,1.930633664E-2,1.618161437E0
1.277172850E1,1.240915402E0,-3.111464247E-1,1.529614073E-1,1.288441044E0
1.278167850E1,1.014297203E0,-1.631376091E-1,2.767446238E-1,1.063955019E0
1.279162850E1,8.976493442E-1,-9.757658064E-2,1.449144691E-1,9.144920654E-1
1.280157850E1,8.736962253E-1,6.305520415E-2,-2.536042678E-1,9.119408849E-1
1.281152850E1,8.253672338E-1,2.324399784E-1,-1.069844583E0,1.371067776E0
1.282147850E1,7.568290955E-1,3.581203240E-1,-1.527923058E0,1.742294269E0
1.283142850E1,7.577108556E-1,1.550403848E-1,-1.275647278E0,1.491790615E0
1.284137850E1,6.347421563E-1,-3.132727647E-1,-8.945783865E-1,1.140748842E0
1.285132850E1,3.525391567E-1,-6.448049220E-1,-4.920964068E-1,8.844298265E-1
1.286127850E1,1.603540421E-2,-5.210655597E-1,4.102757335E-2,5.229241947E-1
1.287122850E1,3.523824513E-2,-7.682188869E-1,-4.366174400E-2,7.702651102E-1
1.288117850E1,2.187735736E-2,-6.445657709E-1,-1.971230882E-1,6.743894748E-1
1.289112850E1,1.058778727E-1,-5.608617094E-1,-1.064570394E0,1.207926366E0
1.290107850E1,2.870912719E-1,-1.910846686E-1,-2.060782160E0,2.089439604E0
1.291102850E1,3.319207048E-1,-2.557803091E-1,-3.125436169E0,3.153402316E0
1.292097850E1,4.620633531E-1,-1.537768015E-1,-3.364320071E0,3.399382207E0
1.293092850E1,-2.164697707E-1,-5.786404610E-2,-2.018288397E0,2.030688421E0
1.294087850E1,-3.639868355E-1,-3.943827090E-1,-1.660328579E-1,5.617749082E-1
1.295082850E1,-5.792088103E-1,-7.562730253E-1,9.175933197E-1,1.322652349E0
1.296077850E1,-6.646828240E-1,-2.808534622E-1,1.999515034E0,2.125733355E0
1.297072850E1,-7.560654491E-1,-4.199829885E-1,2.092882789E0,2.264548309E0
1.298067850E1,-6.618200272E-1,-3.638546884E-1,1.381224896E0,1.574223045E0
1.299062850E1,-6.280166888E-1,-2.085391921E-1,3.562041914E-1,7.515151243E-1
1.300057850E1,-6.301433212E-1,-5.647416294E-2,-3.823386142E-1,7.392244261E-1
1.301052850E1,-8.452810961E-1,-8.690307319E-2,-6.098268780E-1,1.045916391E0
1.302047850E1,-1.033440987E0,1.896643800E-1,1.943927309E-1,1.068532351E0
1.303042850E1,-9.864393139E-1,-2.922397453E-1,8.021119800E-1,1.304549814E0
1.304037850E1,-9.572710633E-1,-3.882428402E-1,1.151118834E0,1.546665756E0
1.305032850E1,-9.637263894E-1,-4.110902506E-1,1.353116746E0,1.711341192E0
1.306027850E1,-8.483538079E-1,-4.131870621E-1,1.183199582E0,1.513403113E0
1.307022850E1,-7.523431116E-1,-2.839127254E-1,8.817498878E-1,1.193360573E0
1.308017850E1,-6.699499959E-1,-2.061658072E-1,6.163000381E-1,9.333611702E-1
1.309012850E1,-6.111749536E-1,-2.739560866E-1,1.712175840E-1,6.913047247E-1
1.310007850E1,-6.102978712E-1,-1.833564037E-1,-2.544702405E-1,6.861764829E-1
1.311002850E1,-6.126794422E-1,-1.442437935E-1,-1.237706450E-1,6.414838606E-1
1.311997850E1,-6.435351992E-1,-1.302350342E-1,1.520439792E-1,6.739555537E-1
1.312992850E1,-6.953836298E-1,-1.219729185E-3,5.189544225E-1,8.676828758E-1
1.313987850E1,-6.945960099E-1,6.127180338E-2,8.011556679E-1,1.062105576E0
1.314982850E1,-6.578409970E-1,2.088163501E-1,6.793140194E-1,9.684144682E-1
1.315977850E1,-5.440623665E-1,3.153947192E-1,5.128630856E-1,8.114839691E-1
1.316972850E1,-4.044723719E-1,4.286640573E-1,3.834501699E-1,7.031250290E-1
1.317967850E1,-2.764066547E-1,4.740308493E-1,2.579674602E-1,6.063440405E-1
1.318962850E1,-1.928417569E-1,3.418206257E-1,3.152175486E-1,5.033799622E-1
1.319957850E1,-1.765221781E-1,4.329219997E-2,3.774757773E-1,4.189537640E-1
1.320952850E1,-1.618216932E-1,8.042143464E-2,5.384888005E-1,5.680000491E-1
1.321947850E1,-8.449986756E-2,2.669253945E-2,6.557459396E-1,6.617064731E-1
1.322942850E1,-4.628831327E-2,1.138487971E-1,8.164610472E-1,8.256590084E-1
1.323937850E1,-4.932886541E-2,1.378486937E-1,8.960150474E-1,9.078978822E-1
1.324932850E1,-5.154846847E-2,1.245608962E-1,7.854827911E-1,7.969666721E-1
1.325927850E1,-4.650875330E-2,1.117601717E-1,4.393831730E-1,4.557531929E-1
1.326922850E1,-7.872281849E-2,2.370163018E-1,-1.173840237E-1,2.759583636E-1
1.327917850E1,1.179693300E-1,2.422442973E-2,-5.534901246E-1,5.664405564E-1
1.328912850E1,1.520124042E-1,1.026841235E-1,-7.272731745E-1,7.500520453E-1
1.329907850E1,1.272944695E-1,1.647505635E-1,-6.834295821E-1,7.144386775E-1
1.330902313E1,8.471446037E-2,5.357686758E-2,-4.666659889E-1,4.773092977E-1
1.331897313E1,-4.737297177E-2,-2.072194755E-2,-2.637129343E-1,2.687342726E-1
1.332892313E1,-1.990795666E-1,-6.890534341E-2,-4.907275736E-2,2.163070866E-1
1.333887313E1,-1.730465931E-1,-2.076100695E-1,1.201289991E-1,2.957668689E-1
1.334882313E1,-7.474320352E-2,-3.228294539E-1,-1.424381733E-3,3.313720442E-1
1.335877313E1,1.543664932E-3,-3.300209445E-1,-1.651575297E-1,3.690436510E-1
1.336872313E1,7.599626184E-2,-3.587488997E-1,-3.303302622E-1,4.935527195E-1
1.337867313E1,1.325253886E-1,-3.404792744E-1,-5.226171184E-1,6.376658744E-1
1.338862313E1,1.288743871E-1,-2.396194822E-1,-5.801227301E-1,6.407561829E-1
1.339857313E1,1.134611267E-1,-1.679156613E-1,-6.097812697E-1,6.425747377E-1
1.340852313E1,1.086254793E-1,-2.892559111E-2,-7.059705985E-1,7.148640923E-1
1.341847312E1,2.457385933E-1,-5.986496329E-2,-7.258017227E-1,7.686087501E-1
1.342842313E1,4.070849079E-1,-1.730465931E-1,-6.650459361E-1,7.987173109E-1
1.343837313E1,5.055163515E-1,-3.872844815E-2,-4.783042869E-1,6.970090854E-1
1.344832313E1,5.271995813E-1,-1.753246683E-1,-3.311161280E-1,6.467735523E-1
1.345827312E1,4.106324136E-1,-2.026165473E-1,-1.636992341E-1,4.862816916E-1
1.346822313E1,2.586913455E-1,-2.096899241E-1,-4.549016833E-2,3.360958671E-1
1.347817313E1,1.141464204E-1,-2.469577378E-1,-3.445237935E-2,2.742343815E-1
1.348812313E1,5.237468004E-2,-2.400328803E-1,-1.404208839E-3,2.456844776E-1
1.349807312E1,5.494745493E-2,-2.522284180E-1,-1.456500489E-1,2.963989446E-1
1.350802313E1,4.626726329E-2,-2.075942820E-1,-3.040253931E-1,3.710356927E-1
1.351797313E1,3.434946835E-2,-1.497583026E-1,-3.760139734E-1,4.061944649E-1
1.352792313E1,-1.730015695E-2,-1.360816652E-1,-5.639586872E-1,5.804023741E-1
1.353787313E1,-3.883311331E-2,-1.523837024E-1,-6.175487110E-1,6.372560034E-1
1.354782313E1,5.653731287E-2,-2.549140441E-1,-4.854475379E-1,5.512140689E-1
1.355777313E1,2.291775244E-1,-3.030109012E-1,-3.565842605E-1,5.210472903E-1
1.356772313E1,4.301878417E-1,-3.925662714E-1,-2.076398903E-1,6.182913396E-1
1.357767313E1,5.011414647E-1,-4.303585804E-1,-1.939059502E-1,6.884408419E-1
1.358762313E1,4.158364356E-1,-3.279036677E-1,-3.149035531E-1,6.161209331E-1
1.359757313E1,2.397568917E-1,-2.725849146E-1,-3.475941664E-1,5.026008429E-1
1.360752313E1,6.900883913E-3,-2.470553863E-1,-4.637707400E-1,5.255162085E-1
1.361747313E1,-2.871503288E-1,-2.360713917E-1,-4.928752559E-1,6.173419079E-1
1.362742312E1,-4.385709947E-1,-2.310720223E-1,-3.342174911E-1,5.978629678E-1
1.363737313E1,-3.815138644E-1,-1.572918552E-1,-2.075477967E-1,4.619195215E-1
1.364732313E1,-2.716300642E-1,-1.568895668E-1,-2.322750869E-1,3.903190285E-1
1.365727313E1,-2.094069189E-1,-1.222641098E-1,-1.420505029E-1,2.810304532E-1
1.366722312E1,-1.151778692E-1,-1.331943101E-1,-9.517951459E-2,2.001644469E-1
1.367717313E1,-2.811165869E-2,-1.642646599E-1,9.114055037E-3,1.669017970E-1
1.368712313E1,-2.413262844E-2,-1.711041480E-1,3.095495501E-1,3.545136629E-1
1.369707313E1,-3.046750188E-2,-1.572146720E-1,5.725081936E-1,5.944832659E-1
1.370702312E1,-6.964092314E-2,-2.116499108E-1,6.806930852E-1,7.162322383E-1
1.371697313E1,-1.255730492E-1,-1.579151684E-1,6.988329023E-1,7.273741929E-1
1.372692313E1,-1.507137376E-1,2.914720058E-2,5.724605387E-1,5.926847884E-1
1.373687313E1,-1.074765015E-1,1.115315455E-1,3.552338460E-1,3.875326688E-1
1.374682312E1,-1.024958432E-2,8.530327499E-2,1.889776245E-1,2.075915346E-1
1.375677313E1,1.432462585E-1,-1.700662673E-2,-9.197202444E-2,1.710776701E-1
1.376672313E1,3.052287501E-1,-1.547693664E-1,-5.193841928E-1,6.219952463E-1
1.377667413E1,5.570607269E-1,-3.284954059E-1,-1.020418069E0,1.208088954E0
1.378662313E1,7.755571425E-1,6.280552804E-2,-1.482901837E0,1.674643626E0
1.379657413E1,1.266272437E0,5.284596562E-1,-2.195881492E0,2.589326365E0
1.380652413E1,1.820414819E0,7.480670428E-1,-2.828799610E0,3.446102385E0
1.381647413E1,2.360336772E0,4.157253385E-1,-3.354389160E0,4.122613718E0
1.382642412E1,2.943961984E0,-2.536335039E-1,-4.047799355E0,5.011578767E0
1.383637413E1,3.244235219E0,-6.630613911E-1,-4.621548620E0,5.685369312E0
1.384632413E1,3.192183305E0,-6.510284060E-1,-5.032418430E0,5.994923477E0
1.385627413E1,3.011418387E0,-5.816786742E-1,-5.505773342E0,6.302422619E0
1.386622412E1,2.860086599E0,-5.505030745E-1,-5.535235122E0,6.254756338E0
1.387617413E1,2.526914005E0,-3.189235139E-1,-5.551566396E0,6.107937135E0
1.388612413E1,2.317315882E0,-5.080926347E-1,-5.789251034E0,6.256479726E0
1.389607413E1,2.026244411E0,-6.039542270E-1,-5.752903572E0,6.129137511E0
1.390602412E1,1.863087798E0,-9.691958749E-1,-5.444600941E0,5.835590475E0
1.391597413E1,1.718166313E0,-1.424916168E0,-5.142607455E0,5.606147786E0
1.392592413E1,1.441832748E0,-1.590596439E0,-5.072687620E0,5.508270000E0
1.393587413E1,1.344278972E0,-1.935268167E0,-5.046427774E0,5.569450791E0
1.394582412E1,8.849035835E-1,-2.289631070E0,-4.660248417E0,5.267198505E0
1.395577413E1,4.398117739E-1,-2.539309518E0,-4.430156388E0,5.125213444E0
1.396572413E1,4.223607588E-1,-2.662222084E0,-4.236643370E0,5.021450197E0
1.397567413E1,3.505095881E-1,-2.714253532E0,-4.146404168E0,4.968168348E0
1.398562413E1,4.316934997E-1,-3.159075785E0,-4.318281026E0,5.367836633E0
1.399557413E1,4.176952654E-1,-3.712160406E0,-4.849138041E0,6.121171779E0
1.400552413E1,2.563164988E-1,-4.467012557E0,-5.470936216E0,7.067605140E0
1.401547413E1,-3.871663678E-1,-5.548365630E0,-5.567530464E0,7.869666729E0
1.402542413E1,-8.702583548E-1,-6.347869459E0,-4.745534150E0,7.973260979E0
1.403537413E1,-7.516201034E-1,-7.002561731E0,-3.215542347E0,7.742126075E0
1.404532413E1,-1.064182431E0,-6.996719193E0,-7.254883119E-1,7.114274173E0
1.405527413E1,-1.503786629E0,-7.030722506E0,-2.959360626E-1,7.195832915E0
1.406522413E1,-1.859319853E0,-7.321695160E0,1.179612900E0,7.645637771E0
1.407517412E1,-2.808730212E0,-6.393274258E0,3.912467010E0,8.004393747E0
1.408512413E1,-3.252844074E0,-5.606836617E0,5.809778270E0,8.704661680E0
1.409507413E1,-3.217891758E0,-4.713775583E0,6.728960570E0,8.823458390E0
1.410502413E1,-2.672787418E0,-4.108543155E0,6.737098140E0,8.331411092E0
1.411497412E1,-1.733269963E0,-3.577061073E0,6.198913395E0,7.363838534E0
1.412492413E1,-8.196796471E-1,-3.423664048E0,4.617361429E0,5.806322140E0
1.413487413E1,-2.364277795E-1,-3.259808693E0,3.662336281E0,4.908661512E0
1.414482413E1,-5.056888443E-1,-2.892870768E0,3.555588343E0,4.611575755E0
1.415477412E1,-1.107448319E0,-2.689477710E0,4.126735012E0,5.048729938E0
1.416472413E1,-1.670675519E0,-2.673018968E0,4.804919642E0,5.746602462E0
1.417467413E1,-1.846035271E0,-2.536180673E0,4.947146146E0,5.857842061E0
1.418462413E1,-1.359567394E0,-2.409594886E0,4.729554294E0,5.479348030E0
1.419457413E1,-4.814208528E-1,-2.187462671E0,4.083297801E0,4.657260988E0
1.420452413E1,3.188840452E-1,-1.853956202E0,3.832223039E0,4.269048378E0
1.421447413E1,8.966950786E-1,-1.628053118E0,4.144904065E0,4.542559711E0
1.422442413E1,1.618585599E0,-2.476059017E0,4.966861203E0,5.781037779E0
1.423437413E1,1.457644496E0,-1.776291729E0,6.274727224E0,6.682225790E0
1.424432413E1,1.447571205E0,-3.265011545E0,7.325972398E0,8.150192290E0
1.425427413E1,7.209651983E-1,-3.717574927E0,7.374037680E0,8.289546783E0
1.426422413E1,-3.796246290E-1,-3.265408571E0,7.325649632E0,8.029455182E0
1.427417413E1,-1.185190852E0,-3.673926047E0,6.135921925E0,7.249272227E0
1.428412412E1,-1.648319860E0,-3.482912130E0,4.713543448E0,6.088113592E0
1.429407413E1,-1.323717530E0,-3.459187052E0,4.050679109E0,5.488734317E0
1.430402700E1,-7.559134215E-1,-4.083759146E0,3.591589357E0,5.490720169E0
1.431397700E1,-2.284752738E-1,-5.166558820E0,3.674994333E0,6.344376592E0
1.432392700E1,-1.928435111E-1,-5.743624041E0,4.289738427E0,7.171350049E0
1.433387700E1,-8.059340125E-1,-5.820863421E0,5.422058755E0,7.995667686E0
1.434382700E1,-1.549052557E0,-6.124995818E0,6.348772269E0,8.956676109E0
1.435377700E1,-2.279609820E0,-5.924554435E0,6.343786349E0,8.974441009E0
1.436372700E1,-2.242869133E0,-5.384496242E0,5.836707036E0,8.251691388E0
1.437367700E1,-1.744712087E0,-6.209996792E0,5.199965132E0,8.285391832E0
1.438362700E1,-1.581657508E0,-7.177883475E0,3.096655004E0,7.975771052E0
1.439357700E1,-2.142911566E0,-6.749442782E0,7.688886854E-1,7.123077822E0
1.440352700E1,-2.279038839E0,-6.163418457E0,2.774895591E-1,6.577138098E0
1.441347700E1,-2.203464746E0,-6.027047355E0,7.125475466E-2,6.417603442E0
1.442342700E1,-1.808105845E0,-4.950373224E0,-3.000849545E-2,5.270326585E0
1.443337700E1,-9.908101076E-1,-4.271386941E0,-2.231999159E-1,4.390474834E0
1.444332700E1,-1.230932450E-1,-3.747586346E0,-1.021871687E0,3.886357821E0
1.445327700E1,8.180915433E-1,-2.867209092E0,-1.749630765E0,3.457075291E0
1.446322700E1,1.589234038E0,-2.142533836E0,-4.296881971E0,5.057599306E0
1.447317700E1,1.364713821E0,-1.213993651E0,-9.043294957E0,9.225909607E0
1.448312800E1,7.297138023E-1,-7.419464698E-1,-1.273198464E1,1.277444322E1
1.449307700E1,1.601020271E-1,-3.060011673E-1,-1.305723484E1,1.306180122E1
1.450302800E1,5.130282694E-1,-6.341185507E-1,-1.056398443E1,1.059542690E1
1.451297800E1,6.250147283E-1,-1.368135904E0,-6.872315587E0,7.034995436E0
1.452292800E1,2.523459470E-1,-1.421183598E0,-4.899294287E0,5.107497020E0
1.453287800E1,5.573185891E-1,-1.931780303E0,-4.575585412E0,4.997835633E0
1.454282800E1,5.182182580E-1,-1.602239707E0,-5.489428620E0,5.741911599E0
1.455277800E1,8.120730042E-1,-1.080532708E0,-6.964536703E0,7.094489762E0
1.456272800E1,1.253731914E0,-8.048002374E-1,-7.525846601E0,7.671891175E0
1.457267800E1,1.307748492E0,-5.264254099E-1,-6.085344095E0,6.246498426E0
1.458262800E1,1.385763797E0,-4.969127584E-1,-4.009617037E0,4.271333793E0
1.459257800E1,1.468110135E0,-8.230140218E-1,-2.307273290E0,2.855907821E0
1.460252800E1,1.441920456E0,-1.243615938E0,-2.291566499E0,2.979428170E0
1.461247800E1,1.238208725E0,-1.121212080E0,-2.830384498E0,3.286541310E0
1.462242800E1,1.026078174E0,-1.377851930E0,-3.901314908E0,4.262812495E0
1.463237800E1,6.130600959E-1,-1.148247851E0,-3.868886835E0,4.081984952E0
1.464232800E1,1.748720938E-1,-7.274453750E-1,-3.588604061E0,3.665765422E0
1.465227800E1,-1.555944085E-2,-6.669231847E-1,-2.849942265E0,2.926977885E0
1.466222800E1,2.094531119E-2,-6.723394606E-1,-1.705413535E0,1.833279679E0
1.467217800E1,2.365713286E-1,-6.281231081E-1,-7.901225567E-1,1.036724789E0
1.468212800E1,3.461089736E-1,-5.096205121E-1,-1.087266362E-1,6.255605242E-1
1.469207800E1,4.248452407E-1,-4.737092525E-1,3.425737470E-1,7.226691543E-1
1.470202800E1,5.339326501E-1,-5.214535224E-1,4.923256177E-1,8.940818557E-1
1.471197800E1,5.829907894E-1,-6.355990657E-1,5.147976369E-1,1.004430704E0
1.472192800E1,5.790643841E-1,-6.032654250E-1,7.113868743E-1,1.097868853E0
1.473187800E1,4.773380345E-1,-3.980816576E-1,6.881096935E-1,9.272623985E-1
1.474182800E1,3.531303102E-1,-2.262352055E-1,4.523025960E-1,6.168152256E-1
1.475177800E1,2.721346790E-1,-6.353876889E-2,8.232177973E-2,2.913268509E-1
1.476172800E1,2.041713220E-1,1.166811883E-2,-2.242062217E-1,3.034641718E-1
1.477167800E1,8.103246868E-2,1.941275597E-4,-2.259697419E-1,2.400596237E-1
1.478162800E1,-2.433552682E-2,4.706306934E-2,-1.938410461E-2,5.641714166E-2
1.479157800E1,-5.084563315E-2,-1.237697679E-1,4.031444693E-1,4.247701696E-1
1.480152800E1,-1.437725079E-1,-1.977700827E-1,5.319463509E-1,5.854489388E-1
1.481147800E1,-1.944935954E-1,-3.729389226E-1,5.677336496E-1,7.065640067E-1
1.482142800E1,-1.656767625E-1,-5.263368246E-1,6.092406946E-1,8.219814271E-1
1.483137800E1,-1.763432533E-1,-4.667630526E-1,6.910830027E-1,8.523851283E-1
1.484132800E1,-1.839469725E-1,-2.917629048E-1,7.933882266E-1,8.651167317E-1
1.485127800E1,-1.162911791E-1,-9.800868988E-2,7.560543394E-1,7.711987460E-1
1.486122800E1,-8.961325765E-2,9.575283408E-2,5.454241830E-1,5.609694115E-1
1.487117800E1,-8.467528403E-2,1.410231471E-1,2.605338031E-1,3.081157158E-1
1.488112800E1,-9.741519749E-2,8.205602378E-2,1.160216224E-1,1.722902453E-1
1.489107800E1,-9.798763990E-2,8.066029340E-2,2.108137590E-1,2.460693022E-1
1.490102800E1,-1.082892644E-1,4.255866677E-2,3.998326063E-1,4.164179607E-1
1.491097800E1,-9.538562894E-2,2.026820362E-2,3.496594030E-1,3.630026396E-1
1.492092800E1,-9.902727485E-2,-9.159546375E-2,2.309299350E-1,2.674411431E-1
1.493087800E1,-1.308934307E-1,-1.821369669E-1,2.374665374E-1,3.266455591E-1
1.494082800E1,-2.059149617E-1,-1.133506143E-1,2.656495321E-1,3.547097505E-1
1.495077800E1,-2.840577364E-1,8.055416644E-3,1.819671053E-1,3.374399424E-1
1.496072800E1,-3.227160180E-1,4.258351743E-2,2.828824461E-2,3.267402776E-1
1.497067800E1,-2.932729483E-1,-4.095039010E-2,-1.715637392E-1,3.422281012E-1
1.498062800E1,-2.605121684E-1,-1.096499115E-1,-1.675659978E-1,3.285849306E-1
1.499057800E1,-2.978308529E-1,-8.472323120E-2,-1.839645141E-1,3.601724383E-1
1.500052800E1,-3.537115234E-1,-5.155373096E-2,-3.298928905E-1,4.864143790E-1
1.501047800E1,-3.983287024E-1,-1.364450696E-1,-4.152908903E-1,5.913962596E-1
1.502042900E1,-4.186425143E-1,-1.843758658E-1,-4.448134822E-1,6.380556783E-1
1.503037900E1,-3.830961210E-1,-1.707112151E-1,-4.122281188E-1,5.880790583E-1
1.504032900E1,-2.279846925E-1,-2.152789852E-1,-3.648785359E-1,4.811012444E-1
1.505027900E1,-2.912498116E-3,-1.728904724E-1,-4.254410720E-1,4.592381777E-1
1.506022900E1,1.038933277E-1,-4.134186119E-2,-5.457785243E-1,5.571150425E-1
1.507017900E1,1.362869024E-1,1.980481178E-2,-5.353318888E-1,5.527626810E-1
1.508012900E1,1.811952728E-1,-9.853347749E-2,-4.138425350E-1,4.623918434E-1
1.509007900E1,1.556411862E-1,-1.356986725E-1,-2.148284572E-1,2.979757954E-1
1.510002900E1,1.111731112E-1,-1.999911475E-1,7.366088390E-2,2.403785464E-1
1.510997900E1,4.178888083E-2,-9.932606757E-2,1.308495766E-1,1.695098521E-1
1.511992900E1,-5.389437139E-2,3.254706413E-2,6.682841241E-2,9.181476655E-2
1.512987900E1,-1.218501270E-1,1.686231744E-1,2.424255610E-2,2.094491106E-1
1.513982900E1,-1.615059435E-1,2.336436278E-1,-4.591409147E-2,2.877179494E-1
1.514977900E1,-1.756158596E-1,2.069598591E-1,-3.829926252E-2,2.741170315E-1
1.515972900E1,-1.645891804E-1,1.039883450E-1,1.150574166E-1,2.261446070E-1
1.516967900E1,-1.235288626E-1,-1.843100846E-2,2.867445320E-1,3.127643020E-1
1.517962900E1,2.183935046E-3,-1.358951390E-1,3.876335603E-1,4.107700518E-1
1.518957900E1,8.643354177E-2,-2.310775772E-1,2.913112074E-1,3.817457575E-1
1.519952900E1,9.495527387E-2,-2.584203270E-1,8.833447158E-2,2.891375941E-1
1.520947900E1,4.203855693E-2,-1.109509170E-1,-2.001770890E-1,2.326976863E-1
1.521942900E1,-2.385605514E-2,5.561199099E-2,-4.213866127E-1,4.257093871E-1
1.522937900E1,-9.990669608E-2,1.171755704E-1,-5.766611785E-1,5.968664649E-1
1.523932900E1,-1.029437399E-1,2.129058927E-2,-5.834041876E-1,5.927994170E-1
1.524927900E1,2.506935239E-2,-1.516887608E-1,-3.817179322E-1,4.115173537E-1
1.525922900E1,2.119691688E-1,-3.220011958E-1,-2.451895398E-1,4.568737343E-1
1.526917900E1,3.159221381E-1,-4.680307290E-1,-2.187390751E-1,6.055628321E-1
1.527912900E1,2.866275877E-1,-4.404722169E-1,-3.255484092E-1,6.181851783E-1
1.528907900E1,1.929329735E-1,-4.311102399E-1,-4.284822088E-1,6.377116704E-1
1.529902900E1,4.824069858E-2,-3.010915527E-1,-4.797810012E-1,5.684831547E-1
1.530898029E1,-4.378453553E-2,-1.693090528E-1,-4.386066628E-1,4.721847578E-1
1.531893029E1,-5.912178218E-2,-1.402603778E-1,-4.909702331E-1,5.140234708E-1
1.532888029E1,-5.682207227E-2,-1.421738791E-1,-6.063077313E-1,6.253408869E-1
1.533883029E1,-5.655719340E-2,-1.566898844E-1,-5.976023966E-1,6.203862188E-1
1.534878029E1,-3.346946239E-2,-1.709570906E-1,-4.947048497E-1,5.244801427E-1
1.535873029E1,4.545625448E-2,-2.123998162E-1,-2.360456640E-1,3.207764151E-1
1.536868029E1,8.743867815E-2,-2.475287184E-1,-9.251698494E-2,2.783439983E-1
1.537863029E1,6.968360782E-2,-2.760137218E-1,7.926368594E-2,2.955031501E-1
1.538858029E1,-1.131436229E-2,-2.885980994E-1,2.133608061E-1,3.590817613E-1
1.539853029E1,-1.476147133E-1,-3.127795520E-1,3.214115041E-1,4.721509364E-1
1.540848029E1,-3.167448413E-1,-3.291210580E-1,3.529683423E-1,5.772647711E-1
1.541843029E1,-3.696504486E-1,-2.892082563E-1,3.724477565E-1,5.991662549E-1
1.542838029E1,-4.061727422E-1,-2.160423392E-1,2.529452866E-1,5.250065780E-1
1.543833029E1,-4.216877443E-1,-1.184046552E-1,8.838592708E-2,4.468246727E-1
1.544828029E1,-4.341768122E-1,-2.972315133E-2,-5.745006323E-2,4.389686546E-1
1.545823029E1,-3.524140263E-1,6.347591132E-2,-1.441379589E-1,3.860059435E-1
1.546818029E1,-2.235261905E-1,5.075997144E-2,-2.962778324E-1,3.745945628E-1
1.547813029E1,-1.439596188E-1,8.736909628E-3,-3.751170105E-1,4.018873934E-1
1.548808029E1,-1.280054909E-1,-6.007195473E-2,-2.479576117E-1,2.854418025E-1
1.549803029E1,-1.750785005E-1,-1.666070545E-1,4.061768353E-2,2.450718020E-1
1.550798129E1,-2.297137141E-1,-2.024896628E-1,3.165325874E-1,4.404126847E-1
1.551793129E1,-3.037792253E-1,-1.862063366E-1,3.834703428E-1,5.234540298E-1
1.552788129E1,-3.621309292E-1,-7.949611276E-2,9.452257991E-2,3.826133296E-1
1.553783129E1,-2.638550216E-1,3.649685830E-2,-1.407430655E-1,3.012641757E-1
1.554778129E1,-8.444490373E-2,1.082152972E-1,-2.564384133E-1,2.908644910E-1
1.555773129E1,7.713939250E-2,1.488724494E-1,-2.941722500E-1,3.386012474E-1
1.556768129E1,2.488411260E-1,4.738846689E-2,-3.127389139E-1,4.024589433E-1
1.557763129E1,3.590248883E-1,-8.090441465E-2,-3.861179620E-1,5.334149185E-1
1.558758129E1,4.105938220E-1,-1.548059115E-1,-3.332018298E-1,5.509769653E-1
1.559753129E1,3.491448480E-1,-1.292918783E-1,-1.823115063E-1,4.145551833E-1
1.560748129E1,2.083982742E-1,-2.415981799E-2,-9.151769578E-2,2.288864918E-1
1.561743129E1,1.189902538E-1,1.038725701E-1,-4.283845603E-2,1.636561170E-1
1.562738129E1,7.599158406E-2,1.540194610E-1,-1.070426381E-1,2.023730258E-1
1.563733129E1,7.592609525E-3,1.437505808E-1,-2.051021987E-1,2.505769126E-1
1.564728129E1,-5.445394993E-2,4.645788252E-2,-2.409339362E-1,2.513418571E-1
1.565723129E1,-7.250430465E-2,-1.468344024E-1,-1.730524403E-1,2.382527293E-1
1.566718129E1,-1.082465798E-1,-1.146217990E-1,3.411850333E-3,1.576931183E-1
1.567713129E1,-9.792624414E-2,-9.194863558E-2,1.282522434E-1,1.857222087E-1
1.568708129E1,-1.323224902E-2,-1.442505178E-1,9.198371887E-2,1.715934405E-1
1.569703129E1,2.218667507E-2,-2.595210654E-1,-1.180049980E-1,2.859521139E-1
1.570698129E1,2.932437122E-2,-3.544672760E-1,-1.990134931E-1,4.075700418E-1
1.571693129E1,2.024072170E-2,-4.148921102E-1,-2.845436400E-1,5.034979970E-1
1.572688129E1,-7.482097149E-3,-3.612143782E-1,-3.739797270E-1,5.199929278E-1
1.573683129E1,-4.062470019E-2,-2.239378345E-1,-6.158936566E-1,6.565999667E-1
1.574678129E1,-8.693055511E-2,-1.119493291E-1,-8.743733329E-1,8.857868248E-1
1.575673129E1,-1.066964829E-1,-1.336533165E-1,-9.693759692E-1,9.843460357E-1
1.576668129E1,-4.726596773E-2,-2.431035456E-1,-8.024344540E-1,8.397823876E-1
