"Time (s)","Linear Acceleration x (m/s^2)","Linear Acceleration y (m/s^2)","Linear Acceleration z (m/s^2)","Absolute acceleration (m/s^2)"
3.870833316E-4,-6.625114605E-3,2.364164048E-3,-8.753281832E-4,7.088555184E-3
1.033708331E-2,-1.857571791E-2,-1.109840360E-3,-1.973610699E-2,2.712568821E-2
2.028708332E-2,-1.794846699E-2,1.932304917E-2,-8.808245659E-3,2.780490762E-2
3.023708332E-2,-1.960407869E-2,1.541088046E-2,-7.760424614E-3,2.611588268E-2
4.018708333E-2,-2.161171562E-2,1.786080900E-2,-1.749077618E-2,3.304545357E-2
5.013708331E-2,-1.070460733E-2,2.482642342E-2,-1.045599103E-2,2.898737081E-2
6.008708332E-2,-5.773120467E-4,1.765776444E-2,-8.808830380E-3,1.974146466E-2
7.003608331E-2,-9.915598668E-4,2.432487164E-2,-1.270190656E-2,2.745944285E-2
7.998608332E-2,-5.167933647E-5,2.041483625E-2,-6.415565014E-3,2.139924495E-2
8.993608333E-2,1.731795898E-2,2.256596065E-2,-2.332980573E-2,3.678877708E-2
9.988608334E-2,1.293849039E-2,1.732387929E-2,-2.223111391E-3,2.173622671E-2
1.098360833E-1,8.833859204E-3,9.730253352E-3,-1.165291607E-2,1.756432042E-2
1.197860833E-1,4.004113893E-3,-3.988682725E-3,-2.138326764E-2,2.211756435E-2
1.297350833E-1,1.036359589E-3,-7.901324239E-3,-1.120384991E-2,1.374886245E-2
1.396850833E-1,-1.050355447E-2,-1.958338960E-2,-1.599388897E-2,2.737952317E-2
1.496350833E-1,-1.608043233E-2,-1.999454936E-2,-2.737023175E-2,3.751655493E-2
1.595850833E-1,-2.527874209E-2,-6.721315007E-3,-1.195287824E-2,2.875868869E-2
1.695350833E-1,-1.875983211E-2,-1.768659624E-2,-1.180377424E-2,2.835623518E-2
1.794850833E-1,-1.727782333E-2,-1.230013432E-2,-1.315155745E-2,2.495555943E-2
1.894340833E-1,-8.144568410E-3,-2.115872314E-2,-1.419996321E-2,2.675190675E-2
1.993840833E-1,-1.002105868E-2,-8.992014967E-3,-1.719432235E-2,2.183855928E-2
2.093340833E-1,-9.704550728E-4,7.503770676E-3,-1.375206649E-2,1.569610430E-2
2.192840833E-1,6.074877908E-3,1.508003769E-2,-1.674642563E-2,2.333997536E-2
2.292340833E-1,-2.277527042E-3,2.270009030E-2,-1.674584091E-2,2.830025471E-2
2.391840833E-1,1.158602941E-3,2.486685600E-2,-1.794393539E-2,3.068693053E-2
2.491340833E-1,7.370118401E-3,2.515294930E-2,-1.195580184E-2,2.880851786E-2
2.590830833E-1,-9.532971494E-4,1.599033953E-2,-1.629735947E-2,2.285177585E-2
2.690330833E-1,3.082304914E-4,8.724440897E-3,-1.554891586E-2,1.783198417E-2
2.789830833E-1,8.107210184E-4,4.222902542E-3,-1.539922714E-2,1.598831983E-2
2.889330833E-1,-1.240703787E-2,-3.064779255E-3,-1.420171738E-2,1.910539811E-2
2.988830833E-1,-1.058575354E-2,-7.803698578E-3,-1.854269028E-2,2.273295520E-2
3.088330833E-1,-8.573489087E-3,-1.239423567E-2,-1.390233994E-2,2.050358136E-2
3.187820833E-1,-1.888103393E-2,-2.398532429E-2,-1.869237900E-2,3.579377398E-2
3.287320833E-1,-1.225559499E-2,-2.571250500E-2,-4.303550720E-4,2.848715021E-2
3.386820833E-1,-1.781889634E-2,-3.171631411E-2,-1.270599961E-2,3.853414166E-2
3.486320833E-1,-5.188892260E-3,-2.197545583E-2,-2.825959325E-3,2.275590710E-2
3.585820833E-1,-8.830227535E-3,-2.101553031E-2,-9.861913919E-3,2.483712501E-2
3.685320833E-1,-8.283933140E-3,-1.178015925E-2,-1.929230332E-2,2.407464782E-2
3.784820833E-1,-8.637520666E-3,-9.447318921E-4,-7.617167830E-3,1.155510828E-2
3.884310833E-1,-9.646042027E-3,6.730270840E-3,-3.725261092E-3,1.233775679E-2
3.983810833E-1,-9.504822632E-3,1.994544645E-2,-9.412847757E-3,2.401591535E-2
4.083310833E-1,-2.493024347E-3,3.527045507E-2,-1.599973619E-2,3.880994369E-2
4.182810833E-1,-6.524642995E-3,3.762707940E-2,-1.525187731E-2,4.112162244E-2
4.282310833E-1,-4.087633146E-3,3.318128831E-2,1.363570690E-3,3.345991577E-2
4.381810833E-1,-1.276524835E-3,2.901578898E-2,-6.570516229E-3,2.977779725E-2
4.481310833E-1,9.324317258E-3,2.452420003E-2,-1.510335803E-2,3.027359746E-2
4.580800833E-1,1.311913281E-2,1.949597372E-2,-2.528920770E-3,2.363472186E-2
4.680300833E-1,1.279721161E-2,6.709853550E-3,-9.713979363E-3,1.741126517E-2
4.779800833E-1,2.540807063E-3,-8.764587971E-3,-7.169271111E-3,1.160483309E-2
4.879300833E-1,-5.356081515E-3,-2.689000861E-2,1.512089968E-3,2.745990874E-2
4.978800833E-1,-2.343946843E-2,-3.649702275E-2,-9.565460086E-3,4.441778221E-2
5.078292083E-1,-2.309078709E-2,-4.789124065E-2,-1.345619738E-2,5.484363798E-2
5.177792083E-1,-2.845159206E-2,-4.200624193E-2,-1.734751940E-2,5.361859641E-2
5.277282083E-1,-2.208787997E-2,-3.879539877E-2,-1.180903673E-2,4.617803326E-2
5.376782083E-1,-1.891934233E-2,-1.543439038E-2,-8.815262318E-3,2.595902098E-2
5.476282083E-1,-1.921441202E-2,-4.384153218E-3,-1.540215075E-2,2.501281024E-2
5.575782083E-1,-8.950419794E-3,5.767752905E-4,-2.064125597E-2,2.250564668E-2
5.675282083E-1,6.263327273E-3,1.715101641E-2,-1.782231331E-3,1.834565291E-2
5.774782083E-1,1.436711135E-2,3.375993654E-2,-1.824740589E-2,4.097700605E-2
5.874282083E-1,2.797840613E-2,3.396072444E-2,-5.075383186E-3,4.429313184E-2
5.973772083E-1,2.521773005E-2,3.675392337E-2,-5.225071907E-3,4.487857137E-2
6.073272083E-1,2.469949773E-2,4.340034605E-2,-6.871063113E-3,5.040701076E-2
6.172772083E-1,2.111509971E-2,2.668676076E-2,-1.046300769E-2,3.560203878E-2
6.272272083E-1,-1.144866552E-3,2.016756755E-2,-1.480339587E-2,2.504360257E-2
6.371772083E-1,-1.613895931E-2,9.877763072E-3,-1.315565050E-2,2.304576644E-2
6.471272083E-1,-3.013783312E-2,-2.732008731E-3,-1.300596178E-2,3.293794011E-2
6.570772083E-1,-4.110718227E-2,-1.727308617E-3,-1.989105821E-2,4.569943354E-2
6.670262083E-1,-4.296582941E-2,-1.369363317E-2,-1.345327377E-2,4.705920379E-2
6.769762083E-1,-3.733277716E-2,-2.260880521E-2,-1.360237777E-2,4.571563195E-2
6.869262083E-1,-2.833314483E-2,-3.596862632E-2,-2.198436141E-2,5.079194150E-2
6.968762083E-1,-2.142341700E-2,-3.693604586E-2,-1.584653914E-2,4.554500063E-2
7.068262083E-1,-1.662976911E-2,-3.688338438E-2,-1.000809431E-2,4.167847425E-2
7.167762083E-1,-1.365931503E-2,-3.617117067E-2,-1.404968977E-2,4.113786890E-2
7.267262083E-1,2.947028666E-3,-2.601497507E-2,-1.390000105E-2,2.964243470E-2
7.366752083E-1,1.598403093E-2,-1.568288791E-2,-1.539747298E-2,2.717580527E-2
7.466252083E-1,2.421855510E-2,5.993855142E-3,-1.390117049E-2,2.856058914E-2
7.565752083E-1,3.539171627E-2,2.131166666E-2,-3.123582602E-3,4.143087598E-2
7.665252083E-1,2.758450022E-2,3.569041306E-2,-1.390175521E-2,4.720136687E-2
7.764752083E-1,2.249243877E-2,4.373801819E-2,-2.075761557E-3,4.922634277E-2
7.864252083E-1,1.074798636E-2,4.678699397E-2,-1.105766952E-2,4.926270466E-2
7.963752083E-1,-3.967185072E-3,4.401092327E-2,-2.303276718E-2,4.983179997E-2
8.063252083E-1,-1.793666749E-2,2.413844596E-2,-9.711640477E-3,3.160228749E-2
8.162742083E-1,-3.015187101E-2,1.616018744E-2,-7.317205667E-3,3.498326003E-2
8.262242083E-1,-3.409881923E-2,3.264144184E-3,-1.255572617E-2,3.648328891E-2
8.361742083E-1,-3.873598101E-2,-8.598833112E-5,-1.360354722E-2,4.105532993E-2
8.461242083E-1,-3.727520036E-2,-9.213891677E-3,-8.514130712E-3,3.932971883E-2
8.560742083E-1,-3.277961429E-2,-1.644161210E-2,-1.719607651E-2,4.050351551E-2
8.660242083E-1,-1.957407516E-2,-2.429108799E-2,-1.539922714E-2,3.478990616E-2
8.759742083E-1,-9.207797782E-3,-3.340857369E-2,-1.524953842E-2,3.786112463E-2
8.859242083E-1,2.064514803E-3,-3.746411339E-2,-1.165700912E-2,3.929004804E-2
8.958732083E-1,1.256186118E-2,-2.937142532E-2,-4.099716783E-2,5.197353895E-2
9.058232083E-1,1.820658958E-2,-3.359502450E-2,5.121225357E-2,6.389679562E-2
9.157732083E-1,2.034585738E-2,-1.001122577E-2,-5.626307845E-2,6.066063428E-2
9.257232083E-1,1.991939436E-2,8.251273243E-3,1.517352462E-3,2.161407274E-2
9.356732083E-1,1.693759304E-2,2.670630097E-2,-4.286009073E-4,3.162739743E-2
9.456232083E-1,5.667518838E-3,4.440874407E-2,-5.371837020E-2,6.992796734E-2
9.555732083E-1,4.757897649E-4,5.878164782E-2,2.771346331E-2,6.498880323E-2
9.655222083E-1,-8.490298740E-3,4.315257485E-2,-4.189179182E-2,6.073839075E-2
9.754722083E-1,-1.805608773E-2,4.529131732E-2,-1.794101179E-2,5.195387986E-2
9.854222083E-1,-2.306685005E-2,3.416526964E-2,4.962531924E-3,4.152074113E-2
9.953722083E-1,-3.517764879E-2,-7.670541946E-4,-5.700976789E-2,6.699379808E-2
1.005322208E0,-2.383596904E-2,-1.553975675E-2,1.169735491E-2,3.076468059E-2
1.015272208E0,-2.739773650E-2,-2.007102682E-2,-2.318011701E-2,4.111933740E-2
1.025222208E0,-1.824347729E-2,-1.534967427E-2,-2.392914534E-2,3.377929781E-2
1.035172208E0,-7.280464140E-3,-2.819698921E-2,1.064894915E-2,3.100766803E-2
1.045122208E0,5.022534407E-3,-2.016815684E-2,-3.575513899E-2,4.135710781E-2
1.055071208E0,7.871900867E-3,-2.217672567E-2,3.912371993E-3,2.385541111E-2
1.065021208E0,2.922548018E-3,-2.085471589E-2,-1.884031355E-2,2.825628915E-2
1.074971208E0,-1.673943638E-3,-1.313352016E-2,-3.500611067E-2,3.742618366E-2
1.084921208E0,2.143621235E-3,-8.157642419E-3,1.707386971E-4,8.436313978E-3
1.094871208E0,8.545340225E-3,3.554727961E-3,-4.338809431E-2,4.436423850E-2
1.104821208E0,7.730663200E-3,2.507236964E-2,-1.165291607E-2,2.870848875E-2
1.114771208E0,8.870815434E-3,3.082220631E-2,-6.712018847E-3,3.276813949E-2
1.124721208E0,1.234899969E-3,2.855635772E-2,-2.362684429E-2,3.708393608E-2
1.134670208E0,-1.095601933E-2,1.497743276E-2,-4.915169477E-3,1.919678990E-2
1.144620208E0,-1.098525998E-2,8.076076044E-3,-1.898532450E-2,2.337394891E-2
1.154570208E0,-2.159535255E-2,-6.058919120E-3,-9.405246377E-3,2.432135712E-2
1.164520208E0,-1.167055365E-2,-1.033742960E-2,-1.621432900E-3,1.567460742E-2
1.174470208E0,-1.958510265E-2,-1.765044857E-2,-2.976291239E-2,3.976110580E-2
1.184420208E0,-1.231831551E-2,-1.536131846E-2,-4.615207314E-3,2.022402384E-2
1.194370208E0,-9.934615823E-3,-1.283953312E-2,-1.165057719E-2,1.998214581E-2
1.204320208E0,-9.041960696E-3,-2.519213478E-3,-1.180026591E-2,1.507812207E-2
1.214270208E0,-1.426133157E-2,-6.442948713E-3,-5.730271339E-4,1.565967836E-2
1.224219208E0,-1.103534047E-2,-1.123662173E-2,-1.808660746E-2,2.398261404E-2
1.234169208E0,-1.305957800E-2,-7.194126346E-3,-7.308434844E-3,1.660485626E-2
1.244119208E0,-1.227924423E-2,-1.232406908E-2,-7.457538843E-3,1.892821712E-2
1.254069208E0,-6.510148295E-3,-1.118957220E-2,-1.778547585E-2,2.199799327E-2
1.264019208E0,8.295193599E-3,-7.373268132E-3,-7.307265401E-3,1.328801894E-2
1.273969208E0,1.916840631E-2,1.528109511E-2,-1.045131326E-2,2.664900780E-2
1.283919208E0,1.681372343E-2,1.927105007E-2,-5.660689473E-3,2.619385560E-2
1.293869208E0,1.359316384E-2,9.157916007E-3,-8.654463887E-3,1.853486644E-2
1.303819208E0,-1.299635042E-3,1.710388693E-2,-1.479170144E-2,2.265008677E-2
1.313769208E0,-1.742922053E-2,2.026590813E-2,-1.763578713E-2,3.202351867E-2
1.323718208E0,-1.935987521E-2,3.427116134E-2,-7.008472681E-3,3.998044468E-2
1.333668208E0,-1.981545554E-2,1.908795227E-2,-2.107862771E-2,3.465992998E-2
1.343618208E0,-1.903997770E-2,3.130923598E-3,-7.156407237E-3,2.058002910E-2
1.353568208E0,-2.889520386E-3,-6.301818397E-3,1.777553558E-4,6.934972252E-3
1.363518208E0,3.139735535E-3,-1.590739586E-2,1.524953842E-3,1.628584252E-2
1.373468208E0,9.863928468E-3,-3.594792352E-2,-5.706882477E-4,3.728104043E-2
1.383418208E0,6.247174339E-3,-4.227411293E-2,-1.269488990E-2,4.457900897E-2
1.393368208E0,-4.621680365E-3,-3.271529492E-2,-1.478994727E-2,3.619935070E-2
1.403318208E0,-1.674148290E-2,-2.942525625E-2,-1.553839087E-2,3.725002746E-2
1.413267208E0,-2.009310235E-2,-1.418558043E-2,-2.317193091E-2,3.379203806E-2
1.423217208E0,-2.910722938E-2,-5.882328639E-3,-2.963368893E-3,2.984315915E-2
1.433167208E0,-2.517948104E-2,1.955812323E-2,-7.092263281E-2,7.775954150E-2
1.443117208E0,-1.345095773E-2,2.467945046E-2,9.433488429E-2,9.843309368E-2
1.453067208E0,-2.672918048E-2,5.064164755E-2,-1.099919736E-1,1.240050798E-1
1.463017208E0,-1.761079942E-2,3.783013767E-2,4.643390894E-2,6.242889933E-2
1.472967208E0,-1.140529563E-2,3.897171516E-2,-2.885951757E-2,4.981713667E-2
1.482917208E0,1.009806377E-2,2.955835121E-2,-5.280854344E-2,6.135478204E-2
1.492867208E0,2.374952161E-2,1.262327750E-2,5.182387233E-2,5.838750427E-2
1.502817792E0,3.005890484E-2,-1.132510426E-2,-5.610228002E-2,6.464720853E-2
1.512766792E0,4.440455966E-2,-3.956327066E-2,3.773208261E-3,5.959240224E-2
1.522716792E0,4.638797175E-2,-5.117990202E-2,1.140674829E-2,7.000957221E-2
1.532666792E0,3.350551870E-2,-2.845952006E-2,-3.649364233E-2,5.713449042E-2
1.542616792E0,1.991549774E-2,-2.705309796E-2,4.029784083E-2,5.246344570E-2
1.552566792E0,-8.337389482E-3,-1.173433627E-2,-3.783967137E-2,4.048515087E-2
1.562516792E0,-2.667682049E-2,-2.668290068E-3,-2.017581761E-2,3.355348178E-2
1.572466792E0,-4.935809692E-2,1.159358054E-2,2.098858058E-2,5.487397704E-2
1.582416792E0,-5.520295541E-2,3.478057945E-2,-5.011414647E-2,8.227078868E-2
1.592366792E0,-6.389084436E-2,2.909339706E-2,1.919173121E-2,7.277903745E-2
1.602316792E0,-6.006437162E-2,4.029800529E-2,-1.718379736E-2,7.434339823E-2
1.612265792E0,-3.801797947E-2,3.114958187E-2,-2.691356421E-2,5.603573103E-2
1.622215792E0,-1.361844848E-2,2.802020459E-2,1.365207911E-2,3.401430975E-2
1.632165792E0,9.051718237E-4,2.048955271E-2,-3.709122777E-2,4.238396258E-2
1.642115792E0,2.834451035E-2,1.031067402E-3,4.821029305E-3,2.877006588E-2
1.652065792E0,4.685235945E-2,-7.347985776E-4,-8.800644279E-3,4.767740402E-2
1.662015792E0,5.612476896E-2,-2.563601382E-2,-1.957764745E-2,6.473391055E-2
1.671965792E0,5.018506223E-2,-2.616471861E-2,7.367491722E-3,5.707374970E-2
1.681915792E0,5.021247106E-2,-3.436656689E-2,-1.283990085E-2,6.218694576E-2
1.691865792E0,3.478007467E-2,-4.559547303E-2,-2.361690402E-3,5.739493302E-2
1.701815792E0,1.826000481E-2,-4.367319175E-2,5.122745633E-3,4.761321220E-2
1.711765792E0,-6.763967704E-3,-1.881753225E-2,-3.020437717E-2,3.622368258E-2
1.721714792E0,-2.247648683E-2,-1.234235533E-2,1.036126614E-2,2.765650071E-2
1.731664792E0,-4.705990819E-2,7.075998886E-4,-1.313927829E-2,4.886487789E-2
1.741614792E0,-6.197660757E-2,1.735751905E-2,-1.867834568E-2,6.701689302E-2
1.751564792E0,-5.735211323E-2,3.874293372E-2,-2.212586403E-3,6.924720459E-2
1.761514792E0,-5.496917185E-2,3.990672606E-2,-2.795846164E-2,7.345632864E-2
1.771464792E0,-4.104264363E-2,4.042110745E-2,-1.044488132E-2,5.854451357E-2
1.781414792E0,-3.114925981E-2,4.093976918E-2,-1.089453220E-2,5.258357081E-2
1.791364792E0,-1.704627816E-2,2.576186144E-2,-1.897713840E-2,3.625439126E-2
1.801314792E0,6.231400562E-3,6.245913533E-3,-7.002040744E-3,1.126367451E-2
1.811264792E0,1.442392528E-2,-1.188520814E-2,-8.199550509E-3,2.040932192E-2
1.821214792E0,2.873503127E-2,-3.171476551E-2,-1.194176853E-2,4.443123011E-2
1.831163792E0,4.409051393E-2,-3.921656732E-2,-1.044488132E-2,5.992502079E-2
1.841113792E0,4.010088560E-2,-5.304478009E-2,-6.552389860E-3,6.681888605E-2
1.851063792E0,2.719238046E-2,-4.093137751E-2,-1.312699914E-3,4.915817736E-2
1.861013792E0,2.033628257E-2,-3.025217588E-2,-5.803361535E-3,3.691121156E-2
1.870963792E0,8.651403235E-3,-1.378701731E-2,-8.636337519E-4,1.629952415E-2
1.880913792E0,-1.575896338E-2,-3.897890998E-3,4.829800129E-4,1.624105141E-2
1.890863792E0,-1.834920226E-2,1.620763212E-2,-1.298900485E-2,2.771452344E-2
1.900813792E0,-2.626469686E-2,3.706366135E-2,-1.298900485E-2,4.724683630E-2
1.910763792E0,-3.634441042E-2,3.895585002E-2,-8.648616672E-3,5.397474401E-2
1.920713792E0,-3.889565111E-2,5.068276992E-2,-6.852352023E-3,6.425394595E-2
1.930663792E0,-4.230201511E-2,5.276525578E-2,-2.227087498E-2,7.120129614E-2
1.940613792E0,-2.903650548E-2,5.098459588E-2,-1.074425876E-2,5.964886222E-2
1.950562792E0,-1.710580555E-2,4.004995544E-2,-2.346838474E-2,4.947092678E-2
1.960512792E0,-2.763293618E-3,1.803522962E-2,-1.913793683E-3,1.834578712E-2
1.970462792E0,1.498517575E-2,-7.374462700E-3,-1.329013646E-2,2.134399024E-2
1.980412792E0,2.568324151E-2,-1.559431858E-2,-1.373803318E-2,3.303854146E-2
1.990362792E0,2.824899517E-2,-3.719035178E-2,-1.044488132E-2,4.785628004E-2
2.000312792E0,2.129634056E-2,-4.741366474E-2,-8.948578835E-3,5.274150916E-2
2.010262792E0,2.263828112E-2,-5.597472392E-2,-7.302587628E-3,6.081931664E-2
2.020212792E0,9.221817395E-3,-5.709026760E-2,-1.388830662E-2,5.947457971E-2
2.030162792E0,-2.180737350E-4,-4.883154601E-2,-4.008851051E-3,4.899630934E-2
2.040112792E0,-5.015965425E-3,-2.840674894E-2,-5.955389142E-3,2.945454047E-2
2.050062792E0,-1.313738708E-2,-2.043538145E-2,-1.299017429E-2,2.754887262E-2
2.060012792E0,-2.274644547E-2,1.342622126E-2,-7.153483629E-3,2.736487762E-2
2.069961792E0,-3.089453591E-2,1.975536169E-2,-8.800059557E-3,3.771190413E-2
2.079911792E0,-2.384741679E-2,4.240504031E-2,-6.255351305E-3,4.905115851E-2
2.089861792E0,-1.866487881E-2,4.323507998E-2,-1.134359837E-2,4.843890034E-2
2.099811792E0,-1.558696388E-2,5.130663585E-2,-7.303172350E-3,5.411710129E-2
2.109761792E0,-1.446674243E-3,5.766065892E-2,-1.016246080E-3,5.768775615E-2
2.119711792E0,5.572908148E-3,4.559855196E-2,-7.003794909E-3,4.646868181E-2
2.129661792E0,-2.514622500E-4,2.914679402E-2,-9.698191881E-3,3.071894791E-2
2.139611792E0,1.104057555E-2,8.351011667E-3,-6.703832746E-3,1.538099730E-2
2.149561792E0,9.534282549E-3,-2.918336196E-3,-7.452861071E-3,1.244846850E-2
2.159511792E0,9.451430244E-3,-2.927559950E-2,-4.309397936E-3,3.106382414E-2
2.169461792E0,1.838734620E-3,-4.977791330E-2,-6.404455304E-3,5.022189408E-2
2.179411792E0,-6.813011225E-3,-6.373265434E-2,-1.358951390E-2,6.552055585E-2
2.189361792E0,-1.801366801E-2,-7.659466497E-2,-1.598336399E-2,8.029136231E-2
2.199310792E0,-2.060484792E-2,-6.123054396E-2,-5.055502653E-3,6.480198592E-2
2.209260792E0,-3.092480896E-2,-5.718734966E-2,-6.253597140E-3,6.531343083E-2
2.219210792E0,-2.787914051E-2,-4.340230121E-2,-1.493612766E-2,5.370376277E-2
2.229160792E0,-2.164596294E-2,-2.294228380E-2,-1.807900608E-2,3.635583252E-2
2.239110792E0,-1.782019826E-2,2.555066503E-3,-1.403799534E-2,2.282877886E-2
2.249060792E0,-8.996749842E-3,3.461579760E-2,2.727141380E-3,3.586965642E-2
2.259010792E0,-1.000134260E-3,6.565007969E-2,-1.014608860E-2,6.643701036E-2
2.268960792E0,2.175803305E-2,7.921784925E-2,-1.299075902E-2,8.317234794E-2
2.278910792E0,3.190257305E-2,9.125399549E-2,-1.598511815E-2,9.798259980E-2
2.288860792E0,3.640730910E-2,7.487645608E-2,-8.351578116E-3,8.367630901E-2
2.298810792E0,3.089557288E-2,5.971822559E-2,-4.757879376E-3,6.740504660E-2
2.308760792E0,1.016704721E-2,4.547969816E-2,-5.356049538E-3,4.690905095E-2
2.318709792E0,-7.498551579E-4,1.490330788E-2,3.332912922E-5,1.492219754E-2
2.328659792E0,-2.410290814E-3,-2.123776790E-2,-5.953634977E-3,2.218779071E-2
2.338609792E0,-2.137345071E-2,-3.272952238E-2,-1.149153292E-2,4.074434144E-2
2.348559792E0,-2.726217246E-2,-5.078971001E-2,-6.702078581E-3,5.803221991E-2
2.358509792E0,-2.930188685E-2,-7.181807907E-2,-7.000871301E-3,7.788099417E-2
2.368459792E0,-3.660852641E-2,-7.211301172E-2,-9.695268273E-3,8.145224915E-2
2.378409792E0,-3.141349001E-2,-7.626503276E-2,-1.134242892E-2,8.325751179E-2
2.388359792E0,-2.445475977E-2,-5.418966492E-2,-3.559200168E-3,5.955856752E-2
2.398309792E0,-1.020206199E-2,-3.453478626E-2,-1.373744845E-2,3.854154928E-2
2.408259792E0,2.332792366E-3,-1.934110473E-3,-5.654842257E-3,6.415601648E-3
2.418209792E0,1.256602732E-2,3.221912669E-2,-1.029577732E-2,3.608296271E-2
2.428159792E0,1.789242508E-2,4.963078273E-2,-1.418943822E-2,5.463234964E-2
2.438109792E0,1.668438576E-2,7.467064780E-2,3.303676844E-4,7.651263630E-2
2.448058792E0,1.853959308E-2,7.279569698E-2,-4.609360099E-3,7.526072157E-2
2.458008792E0,2.560933819E-2,7.146524072E-2,-1.628508031E-2,7.764227376E-2
2.467958792E0,1.797803654E-2,6.710998782E-2,-1.165934801E-3,6.948611133E-2
2.477908792E0,1.352209733E-3,4.644761792E-2,-1.733173192E-2,4.959434053E-2
2.487858792E0,-1.645670523E-2,1.429179647E-2,-1.403741062E-2,2.592542170E-2
2.497808792E0,-2.117750504E-2,-1.749943965E-2,-1.493495822E-2,3.126931539E-2
2.507758292E0,-2.804647137E-2,-3.241028496E-2,-1.253935397E-2,4.465721135E-2
2.517708292E0,-2.799347185E-2,-5.641926306E-2,-2.197032809E-2,6.670429542E-2
2.527658292E0,-1.805779621E-2,-6.043012866E-2,-1.493437350E-2,6.481450429E-2
2.537608292E0,-2.179576586E-2,-7.289787251E-2,-1.074250460E-2,7.684111290E-2
2.547558292E0,-2.095172942E-2,-6.110389236E-2,-1.104246676E-2,6.553317251E-2
2.557508292E0,-6.858633212E-3,-5.534401035E-2,1.232593060E-3,5.578099692E-2
2.567458292E0,3.484406057E-3,-3.471834543E-2,-2.658728957E-3,3.499390568E-2
2.577408292E0,-8.912207326E-4,-1.979223113E-2,-5.204606652E-3,2.048449701E-2
2.587357292E0,1.509810467E-3,-9.688347545E-3,-8.947409391E-3,1.327402503E-2
2.597307292E0,-3.789470829E-3,1.708980794E-2,-9.098267555E-3,1.972815493E-2
2.607257292E0,-1.724115489E-3,3.586361398E-2,-1.508581638E-2,3.894551627E-2
2.617207292E0,5.197183429E-3,5.473367068E-2,-2.601250827E-2,6.082298914E-2
2.627157292E0,2.481741048E-3,7.148709469E-2,5.122745633E-3,7.171336186E-2
2.637107292E0,4.182654968E-3,7.228440823E-2,-1.104422092E-2,7.324278184E-2
2.647057292E0,4.464198402E-3,5.603367574E-2,-4.907568097E-3,5.642504859E-2
2.657007292E0,5.057142614E-3,3.468470567E-2,-1.313869357E-3,3.507605667E-2
2.666957292E0,-3.376570609E-3,2.258698322E-2,-5.505153537E-3,2.349212114E-2
2.676907292E0,4.149170523E-3,3.717406180E-3,-4.307643771E-3,7.042053649E-3
2.686857292E0,4.739611396E-3,-1.978840531E-2,-1.418709934E-2,2.480561808E-2
2.696807292E0,-1.821198455E-2,-4.381041859E-2,-6.554144025E-3,4.789557352E-2
2.706757292E0,-4.639304238E-3,-5.803358794E-2,-4.008851051E-3,5.835658797E-2
2.716707292E0,-2.324090065E-3,-5.767200618E-2,-1.268904269E-2,5.909715302E-2
2.726656292E0,-2.179006026E-3,-6.124217901E-2,-1.343690157E-2,6.273677455E-2
2.736606292E0,-3.309204290E-3,-5.455746392E-2,-1.673005342E-2,5.716084665E-2
2.746556292E0,-6.360327099E-3,-3.647969352E-2,-1.388596773E-2,3.954796961E-2
2.756506292E0,-9.532893836E-3,-2.019121452E-2,-6.400946975E-3,2.322785678E-2
2.766456292E0,-1.001743158E-2,-1.270729011E-2,-1.134067476E-2,1.975942968E-2
2.776406292E0,-9.743649415E-3,1.339757676E-2,2.279829383E-3,1.672218254E-2
2.786356292E0,-1.423599211E-2,3.186465066E-2,-8.497173786E-3,3.591965194E-2
2.796306292E0,-1.037560095E-2,4.761609717E-2,-5.204606652E-3,4.901054719E-2
2.806256292E0,1.631354894E-3,5.411170052E-2,-8.198965788E-3,5.475363451E-2
2.816206292E0,5.493943328E-3,5.941427087E-2,-1.867717624E-2,6.252260318E-2
2.826156292E0,9.191242852E-3,5.761479026E-2,-1.912624240E-2,6.139833996E-2
2.836106292E0,6.625589691E-3,4.096917428E-2,-1.897596896E-2,4.563396846E-2
2.846056292E0,1.192000592E-3,1.146720074E-2,-1.912565768E-2,2.233177870E-2
2.856006292E0,4.732055697E-3,2.922319612E-3,-6.851767302E-3,8.824908962E-3
2.865956292E0,-3.581574904E-3,-1.834610278E-2,-7.151144743E-3,2.001364627E-2
2.875905292E0,-1.056298137E-2,-3.487370093E-2,-8.648031950E-3,3.745050131E-2
2.885855292E0,-1.637662578E-2,-4.847073169E-2,1.979867220E-3,5.120083571E-2
2.895805292E0,-1.038513009E-2,-5.269948374E-2,-7.749899626E-3,5.426921279E-2
2.905755292E0,-1.634815258E-2,-5.841070137E-2,-4.456163049E-3,6.081882535E-2
2.915705292E0,-9.870081749E-3,-3.705238261E-2,-3.857408166E-3,3.853799643E-2
2.925655292E0,-1.467918365E-2,-2.276655670E-2,-1.163011193E-3,2.711359680E-2
2.935605292E0,-1.089934702E-2,-2.719442242E-2,-6.851767302E-3,3.008785621E-2
2.945555292E0,-1.213784211E-2,-1.231883171E-2,-2.811341286E-3,1.752097217E-2
2.955505292E0,-8.042507088E-3,4.290289418E-3,-1.912039518E-3,9.313667305E-3
2.965455292E0,-2.892261269E-3,1.369607484E-2,-1.987468600E-2,2.430947932E-2
2.975405292E0,3.102573738E-3,3.885818782E-2,-1.134359837E-2,4.059879245E-2
2.985355292E0,2.223157072E-3,3.956223826E-2,-4.906983376E-3,3.992732911E-2
2.995305292E0,-4.246860137E-4,4.733353961E-2,-1.957530856E-2,5.122340320E-2
3.005255292E0,1.068161590E-2,5.499019442E-2,-1.388655245E-2,5.771355768E-2
3.015205292E0,1.387347844E-2,4.935314049E-2,-7.748730183E-3,5.184832398E-2
3.025154292E0,1.229789594E-2,3.634903566E-2,-4.145675898E-4,3.837528507E-2
3.035104292E0,1.491910678E-2,2.253277314E-2,-8.048107624E-3,2.819712129E-2
3.045054292E0,5.656450242E-4,-1.038089771E-2,-1.912507296E-2,2.176812824E-2
3.055004292E0,-4.976131269E-3,-2.842848642E-2,1.853567362E-4,2.886130765E-2
3.064954292E0,-1.110880068E-2,-3.823609204E-2,-1.610907912E-3,3.984970779E-2
3.074904292E0,-1.246504865E-2,-5.482364927E-2,-1.193826020E-2,5.747636048E-2
3.084854292E0,-1.445465970E-2,-5.112911804E-2,-8.346315622E-3,5.378461567E-2
3.094804292E0,-2.684168913E-3,-4.705248954E-2,-8.794797063E-3,4.794256970E-2
3.104754292E0,-7.411176818E-3,-3.020902069E-2,-7.598456740E-3,3.201947872E-2
3.114704292E0,3.177134874E-3,-1.413572378E-2,-4.753786325E-3,1.524832310E-2
3.124654292E0,2.848777170E-3,8.942304498E-3,-8.946239948E-3,1.296593808E-2
3.134604292E0,1.377064968E-4,1.909812551E-2,-2.181888521E-2,2.899691558E-2
3.144554292E0,-2.048768434E-3,2.448606065E-2,-8.047522902E-3,2.585589378E-2
3.154504292E0,-2.093484559E-2,2.529096643E-2,-1.433503389E-2,3.582448799E-2
3.164454292E0,-2.196900333E-2,3.289870562E-2,-1.717911959E-2,4.312869218E-2
3.174404292E0,-1.806339218E-2,2.865468687E-2,4.076678753E-3,3.411739331E-2
3.184353292E0,-1.138250519E-2,3.928925095E-2,-5.503399372E-3,4.127340632E-2
3.194303292E0,-7.599507412E-3,4.063686971E-2,-1.523375094E-2,4.405876598E-2
3.204253292E0,2.924526022E-3,2.739464844E-2,-4.156200886E-3,2.786204625E-2
3.214203292E0,1.903181900E-3,8.413428410E-3,-7.000871301E-3,1.110945894E-2
3.224153292E0,-1.061141733E-3,-1.052727224E-2,-4.455578327E-3,1.148049045E-2
3.234103292E0,7.356181014E-3,-3.458226062E-2,-9.993476272E-3,3.674119918E-2
3.244053292E0,7.743006307E-3,-4.658594568E-2,-1.059223115E-2,4.839834545E-2
3.254003292E0,7.235796894E-3,-5.881351972E-2,-3.707134724E-3,5.937280275E-2
3.263953292E0,1.059636532E-2,-4.852780600E-2,-8.496589065E-3,5.039268736E-2
3.273903292E0,3.697555340E-3,-3.665948170E-2,-1.179032564E-2,3.868593146E-2
3.283853292E0,-9.756855899E-4,-2.081482692E-2,-3.407757282E-3,2.111449246E-2
3.293803292E0,-9.154821094E-3,-1.075566997E-2,-1.089219332E-2,1.783634102E-2
3.303753292E0,-1.143297854E-2,1.512873860E-2,-9.394721389E-3,2.116252631E-2
3.313703292E0,-1.049499835E-2,3.050830676E-2,-1.942386568E-2,3.765884132E-2
3.323653292E0,-2.621453414E-2,4.165104185E-2,-4.754955769E-3,4.944310561E-2
3.333603292E0,-2.257207511E-2,2.596696166E-2,-1.312699914E-3,3.443116108E-2
3.343552292E0,-1.170844178E-2,3.922693242E-2,-8.797135949E-3,4.187158269E-2
3.353502292E0,-4.829864083E-3,2.678958039E-2,-5.054917932E-3,2.768684525E-2
3.363452292E0,-5.699413572E-3,1.621156757E-2,-4.157370329E-3,1.767998773E-2
3.373402292E0,3.926272835E-3,4.925395253E-3,-1.044429660E-2,1.219665808E-2
3.383352292E0,1.330785169E-2,1.546405815E-4,-1.134125948E-2,1.748562258E-2
3.393302292E0,1.001965627E-2,-1.468444386E-2,-1.044254243E-2,2.061730088E-2
3.403252292E0,9.597313707E-3,-1.197285927E-2,-1.238849580E-2,1.972137464E-2
3.413202292E0,1.381192280E-2,-3.112801569E-2,-6.848843694E-3,3.473656909E-2
3.423152292E0,5.753842928E-4,-3.198052375E-2,-8.943901062E-3,3.321262309E-2
3.433102292E0,4.385489398E-3,-3.484973876E-2,-4.453239441E-3,3.540576437E-2
3.443052292E0,4.003241379E-4,-3.836813176E-2,-1.148860931E-2,4.005323880E-2
3.453002292E0,-1.248185939E-2,-2.496476032E-2,-3.853899837E-3,2.817602910E-2
3.462952292E0,-5.784166222E-3,-8.220879142E-3,-1.478059173E-2,1.787471187E-2
3.472902292E0,-1.719407567E-2,4.363530362E-3,-8.942146897E-3,1.986551350E-2
3.482852292E0,-1.500029629E-2,1.935914431E-2,-8.493665457E-3,2.592156843E-2
3.492802292E0,-1.802445795E-2,2.302989839E-2,-3.703626394E-3,2.947836753E-2
3.502752292E0,-6.253181440E-3,3.418425710E-2,-1.103778899E-2,3.646228870E-2
3.512700917E0,-4.639253989E-3,3.904302379E-2,-1.307437420E-3,3.933941759E-2
3.522650917E0,-5.141246589E-3,2.799409768E-2,2.583299875E-3,2.857928200E-2
3.532600917E0,1.327007320E-3,1.588148539E-2,-9.840279222E-3,1.873001927E-2
3.542550917E0,4.564208630E-3,1.374228611E-2,-1.073841155E-2,1.802764295E-2
3.552500917E0,1.194659248E-2,5.957019967E-3,-6.846504807E-3,1.500272598E-2
3.562450917E0,1.442695852E-2,-1.183438989E-2,-4.002419114E-3,1.908426774E-2
3.572400917E0,1.090017385E-2,-1.582593227E-2,2.733573318E-3,1.940995480E-2
3.582350917E0,1.915365122E-3,-2.303421528E-2,-5.648995042E-3,2.379400853E-2
3.592300917E0,3.529639752E-3,-2.692979023E-2,-9.240939617E-3,2.868914296E-2
3.602250917E0,-5.147970887E-4,-3.142138375E-2,-1.732413054E-2,3.588445167E-2
3.612200917E0,-7.264827406E-3,-2.699902948E-2,-1.158918142E-3,2.798335937E-2
3.622150917E0,-6.501688105E-3,-3.274067549E-2,-1.178681731E-2,3.539989890E-2
3.632100917E0,-8.524285681E-3,-2.365166754E-2,-1.403156340E-2,2.879148477E-2
3.642050917E0,-1.715896953E-2,-1.192841129E-3,-1.223471403E-2,2.110785003E-2
3.652000917E0,-1.474515212E-2,8.552192431E-3,-4.001249671E-3,1.750912634E-2
3.661950917E0,-1.136148262E-2,1.394265831E-2,-1.103661954E-2,2.110184777E-2
3.671900917E0,-4.859355977E-3,2.765900197E-2,-1.007475257E-3,2.810068926E-2
3.681849917E0,-1.722416142E-3,2.547664294E-2,-4.093050957E-4,2.553808104E-2
3.691799917E0,4.161234973E-3,3.600167222E-2,-9.690005779E-3,3.751443044E-2
3.701749917E0,-3.453096044E-3,3.220491065E-2,-9.539147615E-3,3.376500377E-2
3.711699917E0,4.911400764E-3,1.570621053E-2,-2.953428626E-3,1.671914015E-2
3.721649917E0,4.396969127E-4,6.745115002E-3,-4.151523113E-3,7.932531369E-3
3.731599917E0,-1.517603709E-3,-2.137116208E-3,-6.396853924E-3,6.913040346E-3
3.741549917E0,-1.912359288E-4,-4.010020494E-3,-5.647825599E-3,6.929269048E-3
3.751499917E0,-5.441839155E-3,-2.800318827E-2,-1.328195035E-2,3.146748118E-2
3.761449917E0,-4.678206495E-3,-2.778985627E-2,-6.395684481E-3,2.889751732E-2
3.771399917E0,-2.158102230E-3,-3.726249637E-2,-5.496967435E-3,3.772754553E-2
3.781349917E0,-7.044656896E-3,-3.243815517E-2,-1.522673428E-2,3.652005666E-2
3.791299917E0,-3.651773469E-3,-2.134193057E-2,-1.148451626E-2,2.450933625E-2
3.801249917E0,-6.553143603E-3,-1.938431474E-2,-1.328019619E-2,2.439383037E-2
3.811199917E0,-8.113797437E-3,-4.350237083E-4,-4.599419832E-3,9.336895484E-3
3.821149917E0,-8.482729336E-3,4.636307540E-3,-1.717327237E-2,1.970718977E-2
3.831099917E0,-4.539074739E-3,1.670497435E-2,-2.204400301E-3,1.745046556E-2
3.841049917E0,-1.312882639E-5,1.948185361E-2,-6.544788480E-3,2.055181376E-2
3.850999917E0,-6.983220018E-4,3.015490882E-2,-5.646071434E-3,3.068687508E-2
3.860948917E0,6.626293184E-3,3.113297441E-2,-5.197005272E-3,3.225180182E-2
3.870898917E0,6.460067807E-3,2.166314370E-2,-1.537642300E-2,2.733969011E-2
3.880848917E0,3.972913516E-3,2.603743203E-2,-1.821992397E-2,3.202651305E-2
3.890798917E0,9.497075072E-3,4.702166375E-3,-1.387895107E-2,1.746224746E-2
3.900748917E0,7.281610742E-5,-7.492823135E-3,-1.604475975E-3,7.663030985E-3
3.910698917E0,5.651137498E-3,-1.346511438E-2,-1.238089442E-2,1.914500476E-2
3.920648917E0,-4.339419734E-3,-2.488565845E-2,-8.938638568E-3,2.679600380E-2
3.930598917E0,2.137582158E-3,-2.825048895E-2,-1.283054531E-2,3.110116198E-2
3.940548917E0,-1.345581823E-2,-3.730834220E-2,-4.897043109E-3,3.996188775E-2
3.950498917E0,-8.840766228E-3,-3.354025482E-2,-4.297703505E-3,3.495108147E-2
3.960448917E0,-8.171881302E-3,-1.627276005E-2,9.408169985E-4,1.823369135E-2
3.970398917E0,-2.562418920E-3,-5.965745109E-3,-1.612486660E-2,1.738296374E-2
3.980348917E0,-5.064022229E-3,-4.528970020E-3,-1.358015835E-2,1.518474865E-2
3.990298917E0,-2.532995548E-3,5.369196637E-3,-1.343046963E-2,1.468406802E-2
4.000248917E0,-4.692271790E-3,1.757393912E-2,-6.693892479E-3,1.938218118E-2
4.010198917E0,-2.083605048E-3,2.129745518E-2,-5.346693993E-3,2.205697495E-2
4.020148917E0,2.150957664E-3,9.212589758E-3,-1.155409813E-3,9.530655840E-3
4.030097917E0,4.503388451E-3,1.683626718E-2,-1.253175259E-2,2.146590839E-2
4.040047917E0,-2.606528853E-3,1.878317986E-2,-1.402922451E-2,2.358857730E-2
4.049997917E0,3.258826872E-3,1.629778887E-2,-5.347278714E-3,1.745941764E-2
4.059947917E0,3.997179461E-3,9.874928542E-3,-1.073548794E-2,1.512423084E-2
4.069897917E0,1.977962307E-3,1.795689063E-4,-2.181186855E-2,2.190210468E-2
4.079847917E0,-4.161312631E-3,-1.182079055E-2,-5.554854870E-4,1.254416901E-2
4.089797917E0,-5.913229804E-3,-1.931409791E-2,-1.238089442E-2,2.369150083E-2
4.099747917E0,-7.627108097E-3,-1.704486203E-2,-7.890232801E-3,2.027204660E-2
4.109697917E0,-1.147168437E-2,-2.566726217E-2,-6.393345594E-3,2.883197456E-2
4.119647917E0,-6.960383900E-3,-3.080219102E-2,-9.537393451E-3,3.298763086E-2
4.129597917E0,-1.803389115E-2,-2.890558267E-2,-3.549844623E-3,3.425427472E-2
4.139547917E0,-2.577635385E-3,-1.847877290E-2,7.905435562E-4,1.867442666E-2
4.149497917E0,-9.253922263E-3,-8.917862680E-3,-1.911747158E-2,2.303564784E-2
4.159447917E0,-5.199517747E-3,8.048422826E-3,-1.073490322E-2,1.438924049E-2
4.169397917E0,3.974096663E-4,3.997745910E-3,-6.095722318E-3,7.300529938E-3
4.179347917E0,-6.434586737E-3,1.040389599E-2,-6.246580482E-3,1.373552788E-2
4.189297917E0,-7.544004545E-4,1.602755158E-2,-5.647825599E-3,1.701027524E-2
4.199246917E0,-5.564740319E-3,1.501630761E-2,-1.328195035E-2,2.080543280E-2
4.209196917E0,7.518226546E-3,1.451373485E-2,-1.717385709E-2,2.370893497E-2
4.219146917E0,-7.693291269E-4,1.367346256E-2,-1.777261198E-2,2.243704932E-2
4.229096917E0,-7.659053081E-3,1.114891349E-2,2.884431481E-3,1.383037639E-2
4.239046917E0,3.513678680E-3,5.138121983E-3,-1.013848722E-2,1.189685498E-2
4.248996917E0,-1.543002552E-3,-6.848368607E-3,-1.028817594E-2,1.245502202E-2
4.258946917E0,-7.214226150E-3,-9.785790481E-3,-3.850976229E-3,1.275291230E-2
4.268896917E0,-1.517566251E-2,-1.476274401E-2,-8.791288733E-3,2.292435606E-2
4.278846917E0,-3.631481803E-3,-1.908614329E-2,-1.193533659E-2,2.280177154E-2
4.288796917E0,-8.482245114E-3,-2.007771229E-2,-1.927008390E-2,2.909293981E-2
4.298746917E0,-1.321300803E-2,-2.044582650E-2,2.285676599E-3,2.445076113E-2
4.308696917E0,1.298584370E-3,-1.527480479E-2,-5.049070716E-3,1.613998444E-2
4.318646917E0,-4.013167941E-3,-9.470566171E-3,-6.245995760E-3,1.203368620E-2
4.328596917E0,1.544487197E-3,-9.284419147E-4,-1.822109342E-2,1.830998881E-2
4.338546917E0,1.125447401E-3,3.271919154E-3,-5.947203040E-3,6.880502220E-3
4.348496917E0,5.076895240E-3,1.614354572E-2,-1.043727994E-2,1.988280026E-2
4.358446917E0,5.890421094E-3,1.555902058E-2,-8.192533851E-3,1.854448147E-2
4.368396917E0,6.386027439E-3,1.806367084E-2,-7.593194246E-3,2.060907930E-2
4.378345917E0,1.554888845E-3,1.933586051E-2,-1.432977140E-2,2.411712109E-2
4.388295917E0,-1.022458747E-3,1.482779429E-2,-2.354673743E-3,1.504836848E-2
4.398245917E0,-8.203785173E-3,7.725647385E-3,-1.507821500E-2,1.882392856E-2
4.408195917E0,-1.005816109E-2,3.480436346E-3,-6.844750643E-3,1.265427411E-2
4.418145917E0,-1.032674929E-2,-2.193112434E-3,-7.892571688E-3,1.318120559E-2
4.428095917E0,-8.255514759E-3,-1.922668660E-2,-1.372984707E-2,2.502653996E-2
4.438045917E0,-5.466100532E-3,-2.127788528E-2,-1.717268765E-2,2.788418653E-2
4.447995917E0,-6.462918324E-3,-2.140132092E-2,-9.089496732E-3,2.413306448E-2
4.457945917E0,-6.212593541E-3,-2.377406621E-2,-1.702241421E-2,2.989255975E-2
4.467895917E0,-9.216198586E-3,-1.833710126E-2,-6.993269920E-3,2.168163793E-2
4.477845917E0,-1.225548992E-3,-1.656348544E-2,-8.340468407E-3,1.858532844E-2
4.487795917E0,-4.346509483E-3,-9.477623943E-3,-1.732179165E-2,2.021786255E-2
4.497745917E0,-5.461966367E-3,-2.547321226E-3,-1.657276332E-2,1.763457984E-2
4.507696042E0,-7.653457113E-5,-5.900818175E-3,2.137742043E-3,6.276579778E-3
4.517646042E0,-1.970698969E-3,2.816051035E-3,3.414773941E-4,3.454041787E-3
4.527596042E0,9.041805379E-4,3.648077846E-3,-5.047316551E-3,6.292965818E-3
4.537546042E0,-2.630790230E-5,1.616553216E-2,-4.897627831E-3,1.689117760E-2
4.547495042E0,-1.570128151E-3,1.611728350E-2,-1.851988614E-2,2.460118518E-2
4.557445042E0,-5.168120940E-3,1.355431183E-2,-1.657393277E-2,2.202553270E-2
4.567395042E0,-4.550522491E-3,1.321656661E-2,1.389298439E-3,1.404688713E-2
4.577345042E0,-1.297863061E-2,1.213974246E-2,-8.939223289E-3,1.989291111E-2
4.587295042E0,-7.265964872E-3,-4.594883672E-3,-8.339298964E-3,1.197710769E-2
4.597245042E0,-1.187723445E-2,-1.208582930E-3,-3.698948622E-3,1.249846358E-2
4.607195042E0,-6.707875547E-3,-1.132252098E-2,-1.297847986E-2,1.848339837E-2
4.617145042E0,-5.994387330E-3,-1.552399211E-2,-1.208034754E-2,2.056360394E-2
4.627095042E0,-2.018088824E-3,-1.560875389E-2,-1.103135705E-2,1.921969612E-2
4.637045042E0,-2.382347519E-3,-2.488927642E-2,-5.343770385E-3,2.556770506E-2
4.646995042E0,8.761527319E-3,-8.346649096E-3,-1.342696130E-2,1.807523726E-2
4.656945042E0,-8.589102980E-4,-5.271612089E-3,-1.028349817E-2,1.158783653E-2
4.666895042E0,6.600181712E-4,-5.587973865E-4,-1.058287561E-2,1.061815119E-2
4.676845042E0,3.200615100E-3,-7.373444005E-3,-3.099024296E-3,8.614845622E-3
4.686795042E0,-9.300558376E-3,8.143663919E-4,-1.567287683E-2,1.824287935E-2
4.696745042E0,-3.464356503E-3,1.626381563E-2,-1.896544397E-2,2.522303570E-2
4.706695042E0,-2.058900562E-3,1.011513947E-2,-1.387602746E-2,1.729448630E-2
4.716645042E0,-5.658446518E-3,8.171721417E-3,-5.792836547E-3,1.150443407E-2
4.726594042E0,-1.252320103E-2,5.599695705E-3,-6.841242313E-3,1.532937548E-2
4.736544042E0,3.160287584E-3,1.033084691E-2,-6.541280150E-3,1.262941651E-2
4.746494042E0,2.989420979E-3,4.823879823E-3,-1.402630091E-2,1.513088138E-2
4.756444042E0,-6.297711642E-3,1.713097142E-4,-1.297906458E-2,1.442728791E-2
4.766394042E0,-1.742529650E-3,-1.007113460E-2,-1.302759647E-3,1.030346274E-2
4.776344042E0,-1.128244471E-2,-1.546512252E-2,-4.745600224E-3,1.972268478E-2
4.786294042E0,-5.235076128E-3,-1.926242771E-2,-1.148100793E-2,2.302738992E-2
4.796244042E0,-5.631165602E-3,-1.757765758E-2,2.290354371E-3,1.859918803E-2
4.806194042E0,-1.380692068E-3,-1.632436629E-2,-7.739374638E-3,1.811875176E-2
4.816144042E0,2.482549609E-3,-1.015554921E-2,-6.241902709E-3,1.217618913E-2
4.826094042E0,-9.186080857E-3,-1.114568839E-2,-7.587931752E-3,1.631524316E-2
4.836044042E0,-6.756165326E-3,-1.267274357E-3,-1.282703698E-2,1.455282213E-2
4.845994042E0,-3.808382917E-3,8.033960103E-3,-3.096685410E-3,9.414762658E-3
4.855944042E0,-6.149548679E-3,9.649509243E-3,-5.043223500E-3,1.250456240E-2
4.865894042E0,-1.223682908E-2,1.511566002E-2,-1.148042321E-2,2.258369503E-2
4.875844042E0,-6.738390704E-3,1.291617961E-2,-2.031205773E-2,2.499626561E-2
4.885793042E0,2.138527762E-4,1.169812693E-2,-5.343185663E-3,1.286240800E-2
4.895743042E0,1.518403133E-4,1.310955342E-2,-8.636337519E-3,1.569935579E-2
4.905693042E0,-1.100359191E-3,4.638344930E-3,-1.177921593E-2,1.270727988E-2
4.915643042E0,-4.839128265E-3,1.089605796E-3,-8.636337519E-3,9.959454247E-3
4.925593042E0,-2.613084130E-3,-2.522772057E-3,-4.445638061E-3,5.740756508E-3
4.935543042E0,-3.077325644E-4,-7.853253731E-3,-1.267793298E-2,1.491637617E-2
4.945493042E0,4.515868602E-3,-8.218860026E-3,-9.384781122E-3,1.326713406E-2
4.955443042E0,7.863947740E-3,-8.559898878E-3,4.087788463E-3,1.232167023E-2
4.965393042E0,1.172046969E-3,-1.087514960E-2,-6.989761591E-3,1.298072956E-2
4.975343042E0,-1.958963424E-3,-1.308064625E-2,-2.050033808E-3,1.338444928E-2
4.985293042E0,-2.482439973E-3,-1.863326730E-2,-5.043808222E-3,1.946281480E-2
4.995243042E0,-3.877325244E-3,-1.338880822E-2,-1.207917809E-2,1.844452168E-2
5.005193042E0,-7.017554138E-3,-5.779433632E-3,-1.701949060E-2,1.929536160E-2
5.015143042E0,-6.398557839E-3,-5.314657646E-3,-1.567229211E-2,1.774282583E-2
5.025093042E0,-7.908313489E-4,-1.890587546E-3,-2.001326501E-2,2.011791520E-2
5.035043042E0,-8.988266811E-3,5.722857253E-3,-8.487233520E-3,1.362252430E-2
5.044993042E0,-2.617898947E-3,9.160426199E-3,-2.794618249E-2,2.952551301E-2
5.054943042E0,-8.992076637E-3,5.241882652E-3,-1.821700037E-2,2.098079785E-2
5.064892042E0,-6.864731675E-3,5.197896059E-3,-1.537349939E-2,1.762064550E-2
5.074842042E0,6.627042359E-4,8.279826385E-3,-9.236261845E-3,1.242188531E-2
5.084792042E0,-5.244911327E-3,3.067778237E-3,-6.543034315E-3,8.929258434E-3
5.094742042E0,-6.299762735E-3,2.774549508E-4,-1.267910242E-2,1.416063664E-2
5.104692042E0,-5.738037173E-4,-5.974684954E-3,-1.926540613E-2,2.017875081E-2
5.114642042E0,4.888651441E-3,-8.340655700E-3,-1.447361290E-2,1.740548537E-2
5.124592042E0,4.728040304E-3,-2.444799893E-2,-1.073139489E-2,2.711497470E-2
5.134542042E0,-9.127320908E-4,-1.905021489E-2,-1.342579186E-2,2.332371442E-2
5.144492042E0,-6.643583584E-3,-2.623489890E-2,-6.540695429E-3,2.784219495E-2
5.154442042E0,-1.845527440E-5,-2.017622417E-2,-1.507295251E-2,2.518480216E-2
5.164392042E0,-2.625509463E-3,-8.923038379E-3,-1.492326379E-2,1.758458745E-2
5.174342042E0,-9.968287563E-3,-1.179936142E-3,-1.821641564E-2,2.079896164E-2
5.184292042E0,-1.094696985E-2,-9.514392880E-3,-1.178038538E-2,1.868521609E-2
5.194242042E0,-4.594655265E-3,9.391957666E-3,-1.432450891E-2,1.773446591E-2
5.204192042E0,-6.610734109E-4,8.849463961E-3,-7.887309194E-3,1.187264405E-2
5.214142042E0,-2.174812476E-3,1.076210647E-2,-1.327610314E-2,1.722810668E-2
5.224091042E0,-1.147702909E-2,8.361244295E-3,-1.716742516E-2,2.227898313E-2
5.234041042E0,-1.210290500E-2,1.232124369E-2,-1.447302818E-2,2.253357273E-2
5.243991042E0,-4.327894324E-3,9.252350824E-3,-6.538941264E-3,1.212824876E-2
5.253941042E0,4.011760955E-3,-6.116964156E-3,-6.389837265E-3,9.712955097E-3
5.263891042E0,-9.114196650E-3,-4.939672966E-3,-1.147983849E-2,1.546789066E-2
5.273841042E0,-1.196563248E-2,-1.355435751E-2,-7.287969589E-3,1.949388286E-2
5.283791042E0,-3.303571776E-3,-1.175366177E-2,-1.898590922E-3,1.235584068E-2
5.293741042E0,-4.293409456E-3,-1.934143364E-2,-1.417248130E-2,2.435946728E-2
5.303691042E0,-4.014830743E-3,-1.524721324E-2,-5.491120219E-3,1.669577128E-2
5.313641042E0,-4.357404490E-3,-7.197228111E-3,-1.147808433E-2,1.423142601E-2
5.323591042E0,-4.536795239E-3,-2.077381418E-2,-1.656633139E-2,2.695509604E-2
5.333541042E0,-7.254019193E-3,-1.699565863E-2,-1.431983113E-2,2.337799757E-2
5.343491042E0,-1.214666775E-2,-4.164409828E-3,-7.134187818E-3,1.468946842E-2
5.353441042E0,-5.972314090E-3,-9.451937308E-3,-1.072671711E-2,1.549419616E-2
5.363391042E0,3.281270131E-3,-3.217996862E-3,-5.337338448E-3,7.043395429E-3
5.373341042E0,4.499775055E-3,-1.386393104E-3,-6.984499097E-3,8.423377530E-3
5.383291042E0,1.268096622E-3,6.521139233E-3,-7.882046700E-3,1.030824845E-2
5.393241042E0,-9.114347398E-5,1.061805940E-2,-8.480216861E-3,1.358917108E-2
5.403190042E0,-9.237650558E-3,1.052444913E-2,-5.487027168E-3,1.504013579E-2
5.413140042E0,-2.921606982E-3,-4.901885334E-4,-1.341994464E-2,1.374303410E-2
5.423090042E0,-7.897943817E-3,-2.248295532E-3,1.250719428E-3,8.306422119E-3
5.433040042E0,1.809489406E-3,9.351433720E-4,-9.946113825E-4,2.266714988E-3
5.442990042E0,3.726544739E-3,-1.425971445E-2,-1.072379351E-2,1.822707708E-2
5.452940042E0,-7.034250679E-3,-2.266405455E-2,-8.029981256E-3,2.505235818E-2
5.462890042E0,-4.659221317E-3,-1.965672647E-2,-7.580330372E-3,2.157676174E-2
5.472840042E0,4.096915601E-3,-1.309162349E-2,-1.027414262E-2,1.713865017E-2
5.482790042E0,4.580014385E-5,8.726877999E-4,-9.825076461E-3,9.863863802E-3
5.492740042E0,-8.563937112E-3,-6.291247727E-3,-4.136320353E-3,1.140306813E-2
5.502690042E0,-8.585521560E-3,-1.735037905E-2,-1.296853960E-2,2.330085520E-2
5.512640417E0,-2.266892418E-3,-5.659753005E-3,-2.359702349E-2,2.437193309E-2
5.522590417E0,-6.868788181E-3,-1.775648645E-3,-1.222009599E-2,1.413024859E-2
5.532540417E0,5.326247010E-3,-5.011059246E-3,-5.484103560E-3,9.140843169E-3
5.542490417E0,-1.602443154E-3,-1.843540301E-3,-1.207040727E-2,1.231508005E-2
5.552440417E0,-6.012901990E-3,9.208633751E-3,1.850643754E-3,1.115252475E-2
5.562390417E0,-2.601837376E-3,1.506891428E-3,-1.012386918E-2,1.056091884E-2
5.572339417E0,-3.895433340E-3,1.783364229E-3,-1.446425736E-2,1.508540784E-2
5.582289417E0,1.492981450E-3,-1.261851978E-3,-1.296737015E-2,1.311388397E-2
5.592239417E0,4.091785583E-3,-9.946844727E-4,-1.356554031E-2,1.420408358E-2
5.602189417E0,-3.167564627E-3,-4.978287430E-3,-1.655931473E-2,1.757918416E-2
5.612139417E0,-1.138551102E-2,-7.077903799E-3,-1.206689894E-2,1.803709050E-2
5.622089417E0,4.198711971E-3,-5.503696301E-3,-8.474369645E-3,1.094233961E-2
5.632039417E0,-1.042215941E-2,-1.746291054E-2,-3.683745861E-3,2.066747771E-2
5.641989417E0,-7.488931082E-3,-7.658381565E-3,-6.677520275E-3,1.262236800E-2
5.651939417E0,-6.731113661E-3,-1.041303227E-2,-3.683161139E-3,1.293463599E-2
5.661889417E0,-4.929116000E-3,-5.493970737E-3,-8.622304201E-3,1.135006735E-2
5.671839417E0,-2.772183213E-3,-9.174441244E-3,-4.730397463E-3,1.068793863E-2
5.681789417E0,-3.192310226E-3,-1.522886760E-2,-8.923435807E-3,1.793702761E-2
5.691739417E0,-7.131131734E-3,-1.058383949E-2,-1.296444654E-2,1.819196450E-2
5.701689417E0,-6.480048839E-3,-8.537976388E-3,-1.386257887E-2,1.752310380E-2
5.711639417E0,-8.101257901E-3,6.127845459E-3,-7.275690436E-3,1.249466049E-2
5.721589417E0,-3.362130728E-3,-9.724102356E-4,-1.251479566E-2,1.299498423E-2
5.731539417E0,-3.032822851E-3,-1.008790880E-3,-1.775390089E-2,1.803930903E-2
5.741488417E0,-8.035536110E-4,6.765255919E-3,-7.276275158E-3,9.967876716E-3
5.751438417E0,-6.184531474E-3,-2.104253029E-3,-1.356320143E-2,1.505445925E-2
5.761388417E0,-5.074848714E-3,1.874219910E-3,-5.928491950E-3,8.025821238E-3
5.771338417E0,6.383697689E-4,-8.968098485E-3,-1.311296582E-2,1.589918800E-2
5.781288417E0,-3.846010664E-3,-1.416754314E-2,-1.790300488E-2,2.315229277E-2
5.791238417E0,-1.121295421E-2,-8.386857840E-3,-7.873275876E-3,1.606418997E-2
5.801188417E0,-4.902899461E-3,-1.391796753E-2,-8.322342038E-3,1.694135828E-2
5.811138417E0,-3.385391682E-3,-1.322545620E-2,-8.322342038E-3,1.598858798E-2
5.821088417E0,-2.751311394E-3,-1.489199946E-2,-9.220474362E-3,1.773015820E-2
5.831038417E0,-1.106371773E-2,-4.800312803E-3,-1.266273022E-2,1.748695484E-2
5.840988417E0,5.948043577E-3,-8.392357877E-3,-1.820121288E-2,2.090681811E-2
5.850938417E0,1.157401521E-3,-2.744290167E-3,-6.974558830E-3,7.583876165E-3
5.860888417E0,-4.132040008E-3,-3.474959149E-3,5.098772049E-4,5.423013044E-3
5.870838417E0,-3.650535503E-3,-2.404580642E-3,-8.621134758E-3,9.666042729E-3
5.880788417E0,-5.739078708E-3,8.044978450E-3,-1.116584301E-2,1.491089376E-2
5.890738417E0,-3.865343020E-3,6.841050452E-3,-8.621719480E-3,1.166511443E-2
5.900688417E0,-3.126067668E-4,7.515362324E-4,-2.034831047E-3,2.191590082E-3
5.910638417E0,-5.568860779E-3,5.404540314E-3,-1.041739941E-2,1.299012998E-2
5.920588417E0,-5.531529961E-3,1.032405409E-2,-7.573313713E-3,1.394772373E-2
5.930538417E0,2.985117794E-3,-1.298119790E-2,-3.980784416E-3,1.390212472E-2
5.940487417E0,-2.587954807E-3,-9.145031576E-3,-2.483897209E-3,9.823383224E-3
5.950437417E0,-7.864285782E-3,-1.337128485E-2,-2.373969555E-4,1.551433552E-2
5.960387417E0,-1.165578486E-3,-1.657632647E-2,-8.021210432E-3,1.845191018E-2
5.970337417E0,-9.080579728E-3,-1.455499427E-2,-1.939696848E-2,2.589492562E-2
5.980287417E0,-9.242999847E-3,-1.213317348E-2,-1.733114719E-3,1.535091631E-2
5.990237417E0,-8.270018594E-4,-8.329459196E-3,-6.971635222E-3,1.089346227E-2
6.000187417E0,-2.770323982E-3,-7.502534995E-3,-5.923229456E-3,9.952254694E-3
6.010137417E0,-9.036871791E-3,-1.197117363E-2,-6.372295618E-3,1.629663159E-2
6.020087417E0,-8.907575235E-3,-5.352390460E-3,-8.917588592E-3,1.369366154E-2
6.030037417E0,-1.802294590E-3,-1.020809193E-2,-7.121323943E-3,1.257643277E-2
6.039987417E0,-4.342393591E-3,2.273867964E-3,-7.270427942E-3,8.768465093E-3
6.049937417E0,3.936423236E-3,7.311600563E-3,-6.223191619E-3,1.037704412E-2
6.059887417E0,-3.152919179E-3,2.094299057E-3,-4.276068807E-3,5.710670042E-3
6.069837417E0,-1.539690653E-4,3.749230108E-3,-4.874238968E-3,6.151311925E-3
6.079787417E0,2.230575727E-3,9.508669004E-4,-1.026244819E-2,1.054502057E-2
6.089737417E0,-1.224151142E-3,7.956653517E-3,-1.909408271E-2,2.072174886E-2
6.099687417E0,2.486601546E-3,-1.017187117E-3,-1.220840156E-2,1.250051701E-2
6.109637417E0,-6.597267240E-3,-2.757286518E-3,-6.823700666E-4,7.182770558E-3
6.119587417E0,-4.704226605E-3,-1.531087480E-2,-1.026303291E-2,1.902320897E-2
6.129537417E0,-4.120889185E-3,-7.268861071E-3,-3.078559041E-3,8.904807394E-3
6.139487417E0,-6.337102689E-3,-1.222091826E-2,-1.116116524E-2,1.772233966E-2
6.149436417E0,-7.514622286E-3,-1.498677003E-2,-2.328595161E-2,2.869335057E-2
6.159386417E0,-3.400717783E-3,-2.150784074E-2,-1.340649605E-2,2.557119925E-2
6.169336417E0,-9.243634818E-3,-1.268098906E-2,-6.520814896E-3,1.699333090E-2
6.179286417E0,-6.916251127E-4,-4.023290933E-3,-1.280774117E-2,1.344259830E-2
6.189236417E0,-1.056270272E-2,-7.156941709E-3,-1.131026924E-2,1.705035758E-2
6.199186417E0,-6.899006409E-3,-1.902021593E-3,-2.029159248E-2,2.151656806E-2
6.209136417E0,-2.119807536E-3,4.465166847E-3,-2.343388617E-2,2.394949519E-2
6.219086417E0,5.602902537E-3,-3.500686898E-3,-1.505131781E-2,1.643744182E-2
6.229036417E0,1.515328777E-3,2.258519023E-3,-7.118400335E-3,7.620285612E-3
6.238986417E0,7.829526826E-3,6.323489640E-4,-1.595003486E-2,1.777934103E-2
6.248936417E0,-4.028909742E-3,3.368092147E-3,-8.466183543E-3,9.962550989E-3
6.258886417E0,-6.833709455E-3,-2.332559391E-3,-1.535069525E-2,1.696420534E-2
6.268836417E0,-6.977952956E-3,-1.443466953E-2,-1.909291327E-2,2.493172375E-2
6.278786417E0,4.041431006E-4,-1.228583605E-2,-2.133765936E-2,2.462520672E-2
6.288736417E0,-9.637627518E-3,-9.548215368E-3,-6.817853451E-3,1.518339246E-2
6.298686417E0,-1.146064318E-2,-1.467105693E-2,-3.973767757E-3,1.903620455E-2
6.308636417E0,-5.348247159E-3,-1.356559970E-2,-8.914080262E-3,1.709064276E-2
6.318586417E0,-2.727173357E-3,-9.764703959E-3,-1.804509223E-2,2.069812241E-2
6.328536417E0,-4.962477107E-3,-1.854767868E-2,-1.415318549E-2,2.385278229E-2
6.338486417E0,-2.163031250E-3,-6.940105939E-3,-1.280540228E-3,7.381297847E-3
6.348436417E0,2.406179490E-3,-7.441198616E-3,-1.385439277E-2,1.590928457E-2
6.358386417E0,-7.504992653E-4,-1.254786441E-2,-6.519645452E-3,1.416043527E-2
6.368336417E0,1.571982815E-3,-1.094107239E-2,-8.308893442E-4,1.108460969E-2
6.378286417E0,-1.220190567E-3,-8.679460734E-8,-1.205695868E-2,1.211854437E-2
6.388236417E0,-6.581223942E-3,-5.538185737E-3,-7.866259217E-3,1.165598747E-2
6.398186417E0,-8.341774894E-3,-7.803556966E-3,-1.505131781E-2,1.889504902E-2
6.408135417E0,-5.736922547E-3,1.508079143E-4,-1.310536444E-2,1.430683754E-2
6.418085417E0,-3.350765202E-3,-6.533697043E-3,3.659187555E-3,8.204052538E-3
6.428035417E0,-8.053744705E-3,-1.142343113E-2,-1.250660956E-2,1.875560890E-2
6.437985417E0,-3.520247662E-3,-5.233865571E-3,-6.414863348E-2,6.445799151E-2
6.447935417E0,-2.647897904E-3,-2.378559619E-2,-1.160882807E-1,1.185295527E-1
6.457885417E0,-4.695935436E-1,3.826119624E-2,6.325845337E-1,7.887618193E-1
6.467835417E0,-1.184773434E0,-8.470555068E-1,-8.624643087E-1,1.692641664E0
6.477785417E0,-1.473823011E0,-1.131100891E0,3.438729984E-1,1.889389354E0
6.487735417E0,1.977696441E-1,8.708526878E-2,7.921807766E-2,2.301568596E-1
6.497685417E0,2.480055588E0,1.529129924E0,-9.980553925E-2,2.915283038E0
6.507635542E0,4.687726310E-1,3.861276099E-1,2.114177763E-2,6.076917685E-1
6.517585542E0,1.690841634E-2,-7.377794242E-2,-7.016834199E-2,1.032117995E-1
6.527535542E0,6.424303678E-1,2.038708116E-1,3.252162874E-2,6.747871825E-1
6.537485542E0,-1.706835505E-1,-8.695182435E-2,3.088090003E-2,1.940286684E-1
6.547435542E0,-3.297811355E-1,-1.888458794E-1,2.608209014E-2,3.809181526E-1
6.557385542E0,-4.123948375E-1,-7.695045434E-1,-2.841594779E-1,9.181249116E-1
6.567335542E0,-6.700633588E-1,-1.409926831E0,3.508738697E-2,1.561444747E0
6.577285542E0,-2.773078934E-1,-6.443524937E-1,8.175752342E-1,1.077273905E0
6.587235542E0,2.234169024E-2,4.301400772E-1,6.577410096E-1,7.862206261E-1
6.597185542E0,-1.715869088E-1,-9.186808287E-1,3.024928379E-1,9.823026261E-1
6.607135542E0,-1.540537951E-1,6.695094082E-1,-9.860218227E-2,6.940445301E-1
6.617085542E0,6.054126002E-3,3.034261120E0,-2.086011726E-1,3.041429211E0
6.627035542E0,4.184430877E-1,2.508206716E0,4.510776043E-2,2.543271566E0
6.636985542E0,1.108009432E0,2.283793795E0,-1.688915616E-1,2.543997516E0
6.646935542E0,1.828322154E0,1.918697304E0,1.208907743E0,2.913008613E0
6.656885542E0,2.092716582E0,1.695249064E-1,2.191355748E0,3.034837952E0
6.666835542E0,1.572030652E0,-1.289292925E0,1.973794302E0,2.833623222E0
6.676785542E0,9.367619544E-2,-2.460902741E0,1.457248347E0,2.861536349E0
6.686735542E0,-8.836238473E-1,-1.962975052E0,-5.230568290E-2,2.153322559E0
6.696685542E0,-2.411943712E0,-2.076649054E-1,1.864746653E0,3.055794048E0
6.706634542E0,-2.624571277E0,-7.144522771E-2,2.246671577E0,3.455576940E0
6.716585542E0,-1.792977051E0,-7.296545993E-1,3.016907753E0,3.584535525E0
6.726534542E0,-1.758226318E-1,-1.718543019E0,2.158270447E0,2.764495439E0
6.736484542E0,9.269666257E-1,-3.464779329E0,1.822064903E0,4.022919765E0
6.746434542E0,1.497577178E0,-3.108476612E0,1.299502164E0,3.687013714E0
6.756384542E0,2.875098229E-1,-6.649242409E-1,1.869407469E0,2.004861698E0
6.766334542E0,-9.370461291E-1,1.450635439E0,4.394593037E0,4.721741902E0
6.776284542E0,-1.104139014E0,2.654009669E0,5.511321180E0,6.215911151E0
6.786234542E0,-5.316367774E-1,2.224210960E0,5.678893610E0,6.122057227E0
6.796184542E0,2.518200631E-1,9.438025137E-1,5.542767506E0,5.628183379E0
6.806134542E0,1.082785056E0,-2.419606342E-1,5.045834282E0,5.166373199E0
6.816084542E0,1.166789956E0,-8.561944856E-1,4.982741071E0,5.188658437E0
6.826034542E0,4.469659884E-1,-2.452845570E-1,4.360052365E0,4.389760783E0
6.835984542E0,-8.766266305E-1,1.571762704E0,2.114297047E0,2.776538177E0
6.845934542E0,-1.352188646E0,4.304492122E-1,4.544655395E0,4.761049603E0
6.855884542E0,-1.809927983E0,7.586965500E-1,3.142562664E0,3.705018199E0
6.865834542E0,-1.320163008E0,2.086584753E-1,2.961213609E0,3.248869767E0
6.875784542E0,-3.683321207E-1,-1.765499231E0,2.637945614E0,3.195530182E0
6.885734542E0,2.275060979E-1,-3.269201953E0,1.427712892E0,3.574605507E0
6.895684542E0,-2.358846463E-1,-3.099185679E0,2.806178779E0,4.187509138E0
6.905634542E0,-1.709648235E0,-1.305999005E-1,4.413914577E0,4.735250290E0
6.915584542E0,-2.721899936E0,1.730667952E0,4.454793046E0,5.499921082E0
6.925534542E0,-2.369415743E0,5.417816600E-1,4.988688859E0,5.549294988E0
6.935484542E0,-1.334027925E0,-1.556440514E0,5.039817497E0,5.440762629E0
6.945434542E0,-4.064829005E-1,-2.326757674E0,5.258025060E0,5.764187467E0
6.955384542E0,-4.432773821E-1,-1.783485851E0,5.676300954E0,5.966381579E0
6.965334542E0,-1.113052437E0,-2.444522644E0,2.976912214E0,4.009561448E0
6.975284542E0,-1.398606768E0,-2.189171813E0,1.109430817E0,2.824785099E0
6.985234542E0,-1.646001439E0,-1.157456338E0,8.556055248E-1,2.186569625E0
6.995184542E0,-2.314281324E0,-4.034584647E-1,-4.707008600E-3,2.349191123E0
7.005134542E0,-2.313943501E0,-5.508229172E-1,3.758748096E-1,2.408115920E0
7.015084542E0,-1.659119959E0,-1.185160446E0,8.314056534E-1,2.201935440E0
7.025034542E0,-1.189831348E0,-1.963424265E0,1.557639193E0,2.774341965E0
7.034984542E0,-1.496950942E0,-1.109357142E0,1.828309144E0,2.610411791E0
7.044934542E0,-3.021643706E0,-1.285405111E-1,1.977876243E0,3.613702780E0
7.054884542E0,-2.602548909E0,-9.691151834E-1,2.011318223E0,3.428971575E0
7.064834542E0,-7.994341745E-1,-2.617779152E0,1.337650568E0,3.046501556E0
7.074784542E0,-5.274306194E-1,-2.724393774E0,3.777903575E-1,2.800576735E0
7.084734542E0,-1.639601077E0,-2.513033885E0,-5.275773114E-1,3.046632373E0
7.094684542E0,-3.615440442E0,-1.972308524E0,-1.281623132E0,4.313231776E0
7.104634542E0,-5.401595255E0,-1.503180565E0,-1.935648236E0,5.931569539E0
7.114584542E0,-5.434112206E0,-1.722302633E0,-2.560013924E0,6.248965763E0
7.124534542E0,-3.836212302E0,-3.506976346E0,-2.675729737E0,5.845933419E0
7.134484542E0,-2.718872833E0,-3.848958939E0,-2.778451282E0,5.470516057E0
7.144434542E0,-2.604171219E0,-3.793528504E0,-2.284854188E0,5.137423957E0
7.154384542E0,-2.443873018E0,-3.540827047E0,-1.992484342E0,4.741304183E0
7.164334542E0,-1.870610241E0,-3.619047005E0,-1.359967051E0,4.294903291E0
7.174284542E0,-2.021327780E0,-3.280226585E0,-1.341508561E0,4.079864907E0
7.184234542E0,-2.336888267E0,-3.223209801E0,-1.775120532E0,4.359034423E0
7.194184542E0,-1.533281447E0,-3.621346714E0,-2.305179109E0,4.558393878E0
7.204134542E0,-1.455929508E0,-3.168606162E0,-3.021484369E0,4.614018155E0
7.214084542E0,-2.999763132E0,-2.835297328E0,-2.946328060E0,5.071325155E0
7.224034542E0,-3.450589306E0,-5.416338424E0,-3.252173983E0,7.198605706E0
7.233984542E0,-4.961729102E0,-3.864852256E0,-3.143807536E0,7.031313139E0
7.243934542E0,-4.127277049E0,-1.505514774E0,-3.762353489E0,5.784141626E0
7.253883542E0,3.945268428E-1,-5.361668712E0,-2.206200220E0,5.811235860E0
7.263834542E0,3.345963323E0,-6.516961581E0,-2.068117345E0,7.612054135E0
7.273784542E0,3.383833984E0,-3.807048436E0,-3.815387735E0,6.364050110E0
7.283734542E0,1.855984016E0,-3.032455500E0,-3.650126125E0,5.095476794E0
7.293684542E0,-4.474476528E-1,-2.802129582E0,-2.564522127E0,3.824776247E0
7.303634542E0,-2.560860600E0,-1.167441044E0,-1.256042733E0,3.081974846E0
7.313583542E0,-3.404658843E0,-2.973841256E-1,2.840811253E-2,3.417739922E0
7.323533542E0,-3.702042384E0,-1.026361763E-1,3.479243879E-1,3.719771952E0
7.333483542E0,-3.728388183E0,-3.406242853E-1,-7.041557689E-1,3.809558858E0
7.343433542E0,-3.183737587E0,-1.140504091E0,-9.849816030E-1,3.522374676E0
7.353383542E0,1.030443120E-1,-3.014235576E0,-4.725497496E-1,3.052791756E0
7.363333542E0,3.034987929E0,-3.162618613E0,-9.946137945E-1,4.494726334E0
7.373283542E0,3.306288210E0,-2.564001140E0,-1.374348278E0,4.403916071E0
7.383233542E0,1.463631753E0,-1.475233798E0,-1.823768781E0,2.764898775E0
7.393183542E0,-7.113289869E-1,-6.034212533E-1,-1.630344642E0,1.878331650E0
7.403133542E0,-2.079808999E0,-3.714969993E-2,-1.087893768E0,2.347445084E0
7.413083542E0,-1.513865767E0,-2.963982850E-1,-5.099812853E-1,1.624722258E0
7.423033542E0,9.829689914E-1,-1.050393527E0,-4.195505138E-1,1.498525020E0
7.432983542E0,2.404856302E0,-2.173103956E0,-7.902294876E-1,3.336192033E0
7.442933542E0,2.165715122E0,-2.182386703E0,-1.718904816E0,3.522466108E0
7.452883542E0,1.345736098E0,-1.001588573E0,-2.048571419E0,2.647797230E0
7.462833542E0,3.828715879E-1,-7.464277759E-1,-1.387570587E0,1.621449108E0
7.472783542E0,-1.888387531E-1,-4.455446765E-1,-7.325749180E-1,8.779727467E-1
7.482733542E0,1.384562194E-1,-2.210525259E-1,-3.604470042E-1,4.449228998E-1
7.492683542E0,6.492450052E-1,-1.133780962E-1,-2.947126058E-1,7.219620417E-1
7.502633542E0,6.965969270E-1,-1.267313826E-1,-1.683969603E-1,7.277813259E-1
7.512583667E0,7.157980138E-1,-8.018988490E-2,-1.261337972E-1,7.312365889E-1
7.522533667E0,1.143375658E0,-7.095985034E-1,8.403260194E-2,1.348295001E0
7.532483667E0,1.292009541E0,-6.489386111E-1,-2.393880421E-1,1.465508994E0
7.542433667E0,7.396213245E-1,-7.427490002E-1,1.167945878E-1,1.054683249E0
7.552383667E0,5.961704135E-2,-4.311812836E-1,2.602788280E-1,5.071652189E-1
7.562333667E0,-4.576487052E-1,-2.960196778E-1,5.158576640E-1,7.504526078E-1
7.572283667E0,-5.964896715E-1,4.676047593E-2,4.757668146E-1,7.644216978E-1
7.582233667E0,-1.108328032E-1,-1.858891252E-1,2.577674854E-1,3.365750342E-1
7.592183667E0,7.478641444E-1,-4.783194897E-1,-2.795600581E-1,9.307223747E-1
7.602133667E0,1.337591511E0,-4.181431621E-1,-9.078743702E-1,1.669799577E0
7.612083667E0,1.435349940E0,-1.042209180E0,-4.942803784E-1,1.841396893E0
7.622033667E0,1.459735753E0,-5.552618310E-1,-7.590727452E-1,1.736472171E0
7.631983667E0,1.720741426E0,-6.870077857E-1,-4.889319303E-1,1.916242465E0
7.641933667E0,1.111939858E0,-7.512224928E-1,2.571523217E-1,1.366335536E0
7.651883667E0,5.861190498E-1,-4.815313652E-1,5.971720050E-1,9.654130721E-1
7.661833667E0,1.044921411E0,-7.108249569E-1,7.718079078E-1,1.480817450E0
7.671783667E0,2.529554608E0,-1.218287554E0,7.684785032E-1,2.910915713E0
7.681733667E0,4.127161274E0,-1.519508623E0,5.450844598E-1,4.431645711E0
7.691683667E0,5.427567417E0,-1.801039485E0,2.248277807E-1,5.723004353E0
7.701633667E0,6.160291951E0,-2.531093887E0,-7.280192792E-2,6.660400386E0
7.711583667E0,6.400183328E0,-2.775230928E0,-6.851556802E-1,7.009542899E0
7.721533667E0,6.209158886E0,-2.780170364E0,-7.247881079E-1,6.841660553E0
7.731483667E0,5.586413462E0,-2.743662103E0,-7.283641736E-2,6.224227040E0
7.741433667E0,5.300949470E0,-2.695024087E0,6.383931577E-1,5.980866654E0
7.751383667E0,5.302445188E0,-2.894848881E0,1.257669429E0,6.170721790E0
7.761333667E0,5.227759287E0,-3.168786841E0,1.485969286E0,6.291166977E0
7.771283667E0,5.365027353E0,-3.569166162E0,1.183267118E0,6.551533153E0
7.781233667E0,5.404205452E0,-3.929240041E0,6.563452792E-1,6.713803169E0
7.791183667E0,4.969563786E0,-4.124768593E0,2.936213692E-1,6.465020779E0
7.801133667E0,4.512055414E0,-4.022980848E0,1.971388026E-1,6.048295848E0
7.811083667E0,4.183941831E0,-3.893550975E0,6.560073102E-1,5.752864854E0
7.821033667E0,3.937388721E0,-3.964139147E0,1.242015263E0,5.723637919E0
7.830983667E0,4.140432115E0,-4.559784481E0,1.802779616E0,6.417540569E0
7.840933667E0,4.961019250E0,-5.186075656E0,2.305509331E0,7.538067788E0
7.850883667E0,5.145389560E0,-5.423004835E0,2.122802553E0,7.771119986E0
7.860833667E0,4.426894226E0,-6.231817431E0,1.364998726E0,7.765060367E0
7.870783667E0,2.797210904E0,-6.818163938E0,9.489598310E-1,7.430496154E0
7.880733667E0,1.771554900E0,-6.955609174E0,3.871070185E-1,7.188098329E0
7.890683667E0,1.982107288E0,-7.245660306E0,1.670844796E-1,7.513738071E0
7.900633667E0,1.886431930E0,-7.739359435E0,6.701049471E-1,7.994082219E0
7.910583667E0,1.724629825E0,-8.274943339E0,1.994391850E0,8.684850842E0
7.920533667E0,2.067812559E0,-8.155544949E0,3.129832106E0,8.976893182E0
7.930483667E0,2.607630724E0,-9.233803675E0,2.983985006E0,1.004823541E1
7.940433667E0,1.483355727E0,-8.658847545E0,2.814975915E0,9.224970158E0
7.950383667E0,5.032740904E-1,-7.286256940E0,1.316324018E0,7.421289236E0
7.960333667E0,-7.361882780E-1,-8.002298198E0,3.551059382E-1,8.043932487E0
7.970283667E0,-2.066709482E0,-8.785650848E0,-4.787105222E-1,9.038147635E0
7.980233667E0,-2.692818224E0,-7.990762226E0,-1.569843063E0,8.577176586E0
7.990183667E0,-4.300754582E0,-6.276152775E0,-1.838148254E0,7.827219981E0
8.000133667E0,-5.902871790E0,-3.853836687E0,-2.629005221E0,7.523803628E0
8.010083667E0,-6.918250144E0,-3.886910877E0,-1.444371024E0,8.065759039E0
8.020033667E0,-7.890921603E0,-4.542252774E0,2.098210187E0,9.343510583E0
8.029983667E0,-7.247393421E0,-2.304109361E0,2.175879922E0,7.909999038E0
8.039933667E0,-7.157786011E0,-1.263293865E0,2.890788574E0,7.822178120E0
8.049883667E0,-7.580510466E0,-1.311546843E0,2.713759443E0,8.157743828E0
8.059833667E0,-8.293539239E0,-7.409088814E-1,1.351372229E0,8.435516936E0
8.069783667E0,-9.296785204E0,-6.225436950E-1,1.176577647E-2,9.317613118E0
8.079733667E0,-9.839989200E0,-2.671189374E-1,-1.151765828E0,9.910767099E0
8.089683667E0,-9.752156419E0,-5.784533501E-2,-1.684987457E0,9.896821896E0
8.099633667E0,-9.066498463E0,-1.787271631E-1,-1.348679586E0,9.168002749E0
8.109583667E0,-7.710646682E0,-5.227469265E-2,-7.262920117E-1,7.744953518E0
8.119533667E0,-6.458035680E0,2.184309268E-1,1.179184592E-1,6.462804475E0
8.129483667E0,-5.582256092E0,5.530471981E-1,8.685483366E-1,5.676426736E0
8.139433667E0,-4.985085804E0,9.582761997E-1,1.187675334E0,5.213439023E0
8.149383667E0,-4.473806145E0,1.193323159E0,1.017411430E0,4.740684297E0
8.159333667E0,-3.811423323E0,1.023070366E0,6.304929847E-1,3.996391138E0
8.169283667E0,-3.137902140E0,9.609068620E-1,2.188653567E-1,3.289023242E0
8.179233667E0,-2.513194683E0,8.540092349E-1,8.936473271E-2,2.655836091E0
8.189183667E0,-2.057237870E0,8.043909323E-1,1.589694214E-1,2.214620442E0
8.199133667E0,-1.986487730E0,8.829704940E-1,2.933308174E-1,2.193584592E0
8.209083667E0,-2.228929078E0,9.613342935E-1,5.320773286E-1,2.485034153E0
8.219033667E0,-2.570490088E0,1.034986991E0,8.182517570E-1,2.889317099E0
8.228983667E0,-2.793951959E0,9.881262356E-1,1.027097343E0,3.136477317E0
8.238933667E0,-3.197765057E0,1.057491170E0,1.054741809E0,3.529372355E0
8.248883667E0,-3.601746848E0,8.642132109E-1,1.039971158E0,3.847204808E0
8.258833667E0,-3.613679553E0,6.239862031E-1,8.460535133E-1,3.763488440E0
8.268783667E0,-3.439719917E0,1.716818529E-1,5.871124917E-1,3.493686999E0
8.278733667E0,-3.348011895E0,-6.981400073E-2,2.367461604E-1,3.357097911E0
8.288683667E0,-3.592128470E0,-2.225368416E-1,6.759966016E-2,3.599649887E0
8.298633667E0,-3.986431365E0,-2.718002182E-1,-6.508652687E-2,3.996216541E0
8.308583667E0,-4.069684021E0,-3.413142568E-1,-1.338193546E-2,4.083993454E0
8.318533667E0,-3.791967590E0,-5.941332436E-1,2.346756613E-1,3.845397922E0
8.328483667E0,-3.531525588E0,-6.047693288E-1,3.246783435E-1,3.597615175E0
8.338433667E0,-3.642998954E0,-4.463594860E-1,5.138731921E-1,3.706041531E0
8.348383667E0,-4.078291123E0,-4.548712778E-1,7.228819156E-1,4.166764287E0
8.358333667E0,-4.577829866E0,-4.500917637E-1,6.456495523E-1,4.644994318E0
8.368283667E0,-4.894582893E0,-5.902822673E-1,7.779919231E-1,4.991056630E0
8.378233667E0,-4.216005038E0,-1.325777797E0,1.016256605E0,4.534882880E0
8.388183667E0,-3.269264225E0,-1.994678217E0,6.286014104E-1,3.880975328E0
8.398133667E0,-2.920544178E0,-1.874169441E0,2.566814382E-2,3.470266307E0
8.408083667E0,-2.909024286E0,-1.578786818E0,-2.977682146E-1,3.323199666E0
8.418033667E0,-2.943127586E0,-1.568710896E0,-2.278554690E-1,3.342868825E0
8.427983667E0,-2.968879309E0,-1.507844304E0,1.798146721E-1,3.334692207E0
8.437933667E0,-2.838037626E0,-1.473572019E0,5.151034462E-1,3.239012754E0
8.447883667E0,-2.188467515E0,-1.835082559E0,8.634877177E-1,2.983710627E0
8.457833667E0,-1.740625322E0,-2.117224163E0,7.613122288E-1,2.844646019E0
8.467783667E0,-2.436411825E0,-1.891772484E0,4.544152681E-1,3.117915802E0
8.477733667E0,-3.520023530E0,-1.308899809E0,2.083235760E-1,3.761274129E0
8.487683667E0,-4.038839666E0,-1.112429854E0,8.268693835E-4,4.189239396E0
8.497633667E0,-4.113420317E0,-1.347209596E0,6.376155511E-1,4.375129026E0
8.507583667E0,-2.699553632E0,-2.102509060E0,1.307076062E0,3.662865271E0
8.517533667E0,-3.716893727E-1,-3.370939704E0,1.838949323E0,3.857864965E0
8.527483667E0,2.786933546E-1,-3.735281466E0,1.028729886E0,3.884363885E0
8.537433667E0,-1.140999423E0,-3.078211132E0,3.887075476E-1,3.305806560E0
8.547383667E0,-2.831403667E0,-2.614999385E0,-2.765955198E-1,3.864139438E0
8.557333667E0,-4.511228033E0,-2.454661716E0,-2.459106477E-1,5.141693743E0
8.567283667E0,-5.794203041E0,-2.154059283E0,3.754532254E-1,6.193038463E0
8.577233667E0,-6.183234086E0,-1.909439846E0,1.087035835E0,6.562011216E0
8.587183667E0,-6.180440286E0,-2.744921594E0,1.954958227E0,7.039481399E0
8.597133667E0,-5.762218187E0,-4.063561109E0,2.053854525E0,7.343977514E0
8.607083667E0,-4.479924379E0,-5.278142990E0,1.760212909E0,7.143309132E0
8.617033667E0,-1.990085229E0,-6.711708945E0,1.448819440E0,7.148884805E0
8.626983667E0,5.324685073E-1,-7.470526094E0,1.089836652E0,7.568356939E0
8.636933667E0,2.672051253E0,-7.996037584E0,8.550826375E-1,8.473938946E0
8.646883667E0,5.098856249E0,-8.155503434E0,8.923998602E-1,9.659552206E0
8.656833667E0,6.413741267E0,-6.636502057E0,-2.785587224E-1,9.233462599E0
8.666783667E0,5.201864893E0,-4.737233443E0,-5.374446340E-1,7.056176428E0
8.676733667E0,2.865815701E0,-3.650477543E0,-8.404685453E-2,4.641761497E0
8.686683667E0,1.990749473E0,-3.838810512E0,4.968870306E-1,4.352751582E0
8.696633667E0,3.998457626E0,-4.990567569E0,1.764703863E0,6.633823013E0
8.706583667E0,7.687021008E0,-5.034709954E0,1.505929341E0,9.311628186E0
8.716533667E0,1.003487456E1,-4.891512228E0,1.162812169E0,1.122398019E1
8.726483667E0,1.028392151E1,-5.067253802E0,6.497199453E-2,1.146474265E1
8.736434667E0,9.183549780E0,-4.315558562E0,-8.492752560E-1,1.018248009E1
8.746384667E0,7.489775128E0,-3.275252359E0,-1.390853798E0,8.292073551E0
8.756334667E0,5.665185397E0,-2.772128396E0,-6.691495851E-1,6.342458718E0
8.766284667E0,4.401925446E0,-2.159319438E0,2.280694771E-1,4.908321887E0
8.776234667E0,4.046726391E0,-1.969186111E0,5.258821305E-1,4.531030836E0
8.786184667E0,4.126847278E0,-2.306892051E0,6.101510330E-1,4.767064472E0
8.796134667E0,4.548636764E0,-2.261868783E0,3.369072104E-1,5.091134773E0
8.806084667E0,4.649364409E0,-1.909156549E0,-1.070508607E-1,5.027218717E0
8.816034667E0,4.080269528E0,-1.559046910E0,-1.492209435E-3,4.367977669E0
8.825984667E0,3.091573189E0,-1.213801570E0,3.534793890E-1,3.340072860E0
8.835934667E0,2.118834486E0,-4.729578853E-1,7.318152916E-1,2.291004662E0
8.845884667E0,1.666400912E0,-2.296312684E-1,9.692870915E-1,1.941427306E0
8.855834667E0,1.440628806E0,-2.731298751E-1,1.079192526E0,1.820622914E0
8.865784667E0,1.236032977E0,-1.545530194E-1,8.553985333E-1,1.511082660E0
8.875734667E0,1.055994283E0,-2.575634176E-1,5.247794187E-1,1.207003015E0
8.885684667E0,8.798767322E-1,-2.813978380E-1,3.279761732E-1,9.802735217E-1
8.895634667E0,6.598857683E-1,-1.542565656E-1,3.086382616E-1,7.446488379E-1
8.905584667E0,5.656643200E-1,3.435940862E-2,4.680088019E-1,7.349754626E-1
8.915534667E0,4.887360120E-1,7.716687441E-2,5.629091120E-1,7.494559922E-1
8.925484667E0,1.022701406E-1,1.295924252E-1,6.950222719E-1,7.143593891E-1
8.935434667E0,-1.322616792E-1,3.621268362E-1,6.407905161E-1,7.478245000E-1
8.945384667E0,-1.134248739E-1,4.756148601E-1,5.714682662E-1,7.520975179E-1
8.955334667E0,-8.098510623E-2,3.420901823E-1,6.032081223E-1,6.981721271E-1
8.965284667E0,1.121899420E-1,5.556082785E-2,4.082911885E-1,4.270541924E-1
8.975234667E0,8.064479828E-2,-3.026869655E-2,2.806659859E-2,9.059531686E-2
8.985184667E0,-3.852905810E-1,8.473434091E-2,-6.220383128E-2,3.993720783E-1
8.995134667E0,-7.965562481E-1,2.073954767E-1,-1.184716423E-1,8.315950157E-1
9.005084667E0,-1.162479097E0,3.153643137E-1,1.582139611E-2,1.204600605E0
9.015034667E0,-1.305278628E0,4.594239199E-1,2.390552076E-1,1.404268502E0
9.024984667E0,-9.600613546E-1,5.203922528E-1,4.172175479E-1,1.169015134E0
9.034934667E0,-4.145319217E-1,3.353758246E-1,5.532705617E-1,7.683892063E-1
9.044884667E0,-6.333996356E-2,2.196588421E-1,5.592206883E-1,6.041438042E-1
9.054834667E0,1.137634277E-1,2.634042013E-1,4.169637787E-1,5.061449234E-1
9.064784667E0,1.729395890E-1,1.503190506E-1,2.532405710E-1,3.415182356E-1
9.074734667E0,-9.043596089E-2,1.010422254E-1,1.330697644E-1,1.899888326E-1
9.084684667E0,-4.749780983E-1,2.308334559E-1,8.032437086E-2,5.341725215E-1
9.094634667E0,-7.306265527E-1,1.946877229E-1,-7.954588719E-3,7.561625119E-1
9.104584667E0,-7.967603159E-1,-6.887610734E-2,-1.013755167E-1,8.061314499E-1
9.114534667E0,-6.969670558E-1,-1.861069340E-1,-2.385348237E-1,7.598011120E-1
9.124484667E0,-6.103580976E-1,-1.748919743E-1,-3.227382008E-1,7.122388337E-1
9.134434667E0,-5.458831894E-1,-8.075648010E-2,-2.837723923E-1,6.205133651E-1
9.144384667E0,-3.739124840E-1,5.812892497E-2,-2.858271039E-1,4.742221536E-1
9.154334667E0,-3.060228020E-1,6.035671413E-2,6.649219751E-2,3.189264815E-1
9.164284667E0,-4.117123944E-1,1.337480414E-1,1.721759609E-1,4.658757300E-1
9.174234667E0,-5.472438365E-1,2.072808713E-1,6.903573632E-2,5.892428269E-1
9.184184667E0,-5.736475235E-1,2.104529858E-2,1.962321918E-2,5.743687462E-1
9.194134667E0,-3.471304822E-1,-1.394683725E-1,-4.494754672E-2,3.767907649E-1
9.204084667E0,-7.958879113E-2,-1.697037399E-1,-2.694209679E-1,3.282093736E-1
9.214034667E0,1.843556929E-1,-2.504058409E-1,-4.422997642E-1,5.406655047E-1
9.223984667E0,3.186112726E-1,-4.166187930E-1,-5.883163969E-1,7.881627653E-1
9.233934667E0,2.271561420E-1,-3.779897475E-1,-7.045953333E-1,8.312224407E-1
9.243884667E0,-3.834311664E-2,-1.754936528E-1,-5.406148481E-1,5.696776552E-1
9.253834667E0,-1.709585524E-1,-4.836641371E-2,-2.641385933E-1,3.183321113E-1
9.263784667E0,-2.139887971E-1,-2.608559847E-2,-6.383054495E-2,2.248243808E-1
9.273734667E0,-2.858177483E-1,1.437947273E-2,1.055399036E-1,3.050200415E-1
9.283684667E0,-1.914723390E-1,6.759849072E-2,1.606873333E-1,2.589432982E-1
9.293634667E0,1.397776902E-1,2.207499325E-2,1.650867967E-1,2.174367918E-1
9.303584667E0,4.442047870E-1,-7.520688772E-3,1.561253357E-1,4.709029348E-1
9.313534667E0,5.400003058E-1,-1.663398367E-1,1.270681822E-1,5.791507528E-1
9.323484667E0,5.070793122E-1,-1.858309454E-1,-3.916936476E-2,5.414765076E-1
9.333434667E0,4.287067419E-1,-1.644014847E-1,-1.488431950E-1,4.826713328E-1
9.343384667E0,2.058231604E-1,-1.816724056E-1,-9.262340426E-2,2.897363135E-1
9.353334667E0,7.488821447E-2,-1.177319330E-1,-3.538848203E-2,1.439492875E-1
9.363284667E0,1.286212027E-2,-4.592344701E-2,8.104240894E-2,9.403334074E-2
9.373234667E0,-4.510132849E-2,4.317934871E-2,1.026046014E-1,1.201094926E-1
9.383184667E0,-1.301911801E-1,2.346370697E-2,1.394595651E-1,1.922219010E-1
9.393134667E0,-1.538864368E-1,-4.783022404E-2,2.245553005E-1,2.763943718E-1
9.403084667E0,5.543979049E-2,-6.627877414E-2,1.644014847E-1,1.857263968E-1
9.413034667E0,2.961158645E-1,9.174690664E-2,-4.786176246E-2,3.136763434E-1
9.422984667E0,4.708055252E-1,-2.137490612E-1,6.792827368E-2,5.214985658E-1
9.432934667E0,6.068877751E-1,-2.613968521E-1,-4.880667251E-2,6.625882410E-1
9.442884667E0,6.300830948E-1,-2.945827246E-1,-9.672343533E-2,7.022386425E-1
9.452834667E0,4.006196415E-1,-2.222152448E-1,-1.399612562E-1,4.790249111E-1
9.462784667E0,1.202871662E-1,-2.123211712E-1,-1.104024847E-1,2.678394869E-1
9.472734667E0,-2.115060693E-1,-2.123264337E-1,-5.547249835E-2,3.047860395E-1
9.482684667E0,-2.542036074E-1,-1.013106126E-1,-7.372874815E-2,2.834064970E-1
9.492634667E0,-3.800105453E-3,-1.380305421E-1,-8.602076489E-2,1.626851049E-1
9.502584667E0,2.305919659E-1,-2.217895675E-1,-1.243691075E-1,3.432651189E-1
9.512534667E0,2.009647089E-1,-1.298280680E-1,-2.157763274E-1,3.221825026E-1
9.522484667E0,-6.042921960E-2,-1.695259845E-1,-1.155105758E-1,2.138537891E-1
9.532434667E0,-2.227052414E-1,-1.167221189E-2,-2.826894514E-1,3.600655371E-1
9.542384667E0,-2.010307825E-1,-9.817124248E-2,-1.498968816E-1,2.692954575E-1
9.552334667E0,-1.231277436E-1,-1.702153713E-1,7.179174833E-3,2.102028887E-1
9.562284667E0,-8.114356577E-2,-1.629981530E-1,1.308837097E-2,1.825485732E-1
9.572234667E0,-5.025214076E-2,-2.236887431E-1,-6.371126175E-3,2.293523985E-1
9.582184667E0,-1.727033615E-2,-1.673718703E-1,-8.266672891E-2,1.874710525E-1
9.592134667E0,-4.270221591E-3,-9.811920226E-2,-2.090742123E-1,2.309927248E-1
9.602084667E0,-2.301581025E-2,-1.436900622E-1,-2.836390392E-1,3.187909441E-1
9.612034667E0,-7.642603219E-2,-1.428580034E-1,-3.778926472E-1,4.111595801E-1
9.621984667E0,-1.889486808E-1,-1.474954301E-1,-4.173742533E-1,4.813083971E-1
9.631934667E0,-2.056565148E-1,-1.325540400E-1,-2.814031370E-1,3.728979768E-1
9.641884667E0,-8.696739256E-2,-1.786868173E-1,-3.583524585E-2,2.019318471E-1
9.651834667E0,5.844350517E-2,-1.231721824E-1,-6.819958448E-2,1.524408513E-1
9.661784667E0,2.125252390E-1,-2.215153331E-1,-4.770977139E-2,3.106641954E-1
9.671734667E0,2.050647765E-1,-2.786151481E-1,-7.687919140E-3,3.460304429E-1
9.681684667E0,1.214314663E-1,-1.957881689E-1,-7.462684393E-2,2.421730248E-1
9.691634667E0,6.672842503E-3,-1.811075646E-1,-1.337924802E-1,2.252662969E-1
9.701584667E0,-3.232340813E-3,-2.297295016E-1,-1.619094014E-1,2.810707139E-1
9.711534667E0,1.554464740E-1,-2.732567596E-1,-1.686313971E-1,3.567483862E-1
9.721484667E0,3.119998258E-1,-2.756886166E-1,-1.622976565E-1,4.468653421E-1
9.731434667E0,4.142992026E-1,-3.096615243E-1,-1.085851336E-1,5.285118921E-1
9.741384667E0,6.062907743E-1,-3.767483836E-1,-8.541378736E-2,7.189042792E-1
9.751334667E0,8.592255360E-1,-2.970192593E-1,-1.035704883E-1,9.149949771E-1
9.761284667E0,1.028983655E0,-3.628501368E-1,1.161175533E-1,1.097246950E0
9.771234667E0,1.158984801E0,-4.717533588E-1,3.294792730E-2,1.251751799E0
9.781184667E0,1.228906390E0,-5.632160908E-1,-1.955188315E-2,1.351963593E0
9.791134667E0,1.213320637E0,-6.080665737E-1,-3.843835317E-2,1.357707418E0
9.801084667E0,1.262037883E0,-6.583947283E-1,-1.073408095E-1,1.427496160E0
9.811034667E0,1.343086724E0,-6.776870316E-1,-1.928130690E-1,1.516680105E0
9.820984667E0,1.346054771E0,-7.331238985E-1,-1.271990868E-1,1.538022661E0
9.830934667E0,1.409721594E0,-8.175419050E-1,-3.559547346E-2,1.630017416E0
9.840884667E0,1.850268363E0,-8.238943201E-1,-7.428536654E-2,2.026774082E0
9.850834667E0,2.231189319E0,-9.096846682E-1,4.231513023E-2,2.409880193E0
9.860784667E0,2.372059270E0,-9.412707424E-1,1.162555841E-1,2.554637186E0
9.870734667E0,2.334106162E0,-1.001566646E0,1.572667122E-1,2.544782926E0
9.880684667E0,2.178853816E0,-9.979975051E-1,2.390482457E-1,2.408432485E0
9.890634667E0,2.050999183E0,-8.958542490E-1,3.886715142E-1,2.271611329E0
9.900584667E0,2.145687824E0,-9.046244878E-1,4.751143749E-1,2.376563774E0
9.910534667E0,2.220345073E0,-1.101049418E0,3.897519334E-1,2.508814189E0
9.920484667E0,2.043100764E0,-1.143282688E0,2.560753012E-1,2.355192263E0
9.930434667E0,1.806205500E0,-1.240488555E0,1.778850909E-1,2.198370594E0
9.940384667E0,1.587568751E0,-1.168304678E0,-6.700441360E-2,1.972257577E0
9.950334667E0,1.629345353E0,-1.157628831E0,-5.454523958E-2,1.999461421E0
9.960284667E0,2.056734132E0,-1.301275624E0,1.964406451E-1,2.441733496E0
9.970234667E0,2.755937163E0,-1.504420175E0,6.086366773E-1,3.198266455E0
9.980184667E0,3.230372055E0,-1.724217596E0,9.366257143E-1,3.779616073E0
9.990134667E0,3.473367135E0,-1.843817714E0,9.054330846E-1,4.035313134E0
1.000008467E1,3.372079911E0,-2.010465699E0,6.137844197E-1,3.973616309E0
1.001003467E1,2.997020788E0,-2.038781426E0,3.611637998E-1,3.642691669E0
1.001998467E1,2.749826238E0,-2.148783340E0,3.312984880E-1,3.505506079E0
1.002993467E1,2.864311212E0,-2.288664526E0,4.577961282E-1,3.694839824E0
1.003988467E1,3.305575435E0,-2.590008386E0,6.298737645E-1,4.246376497E0
1.004983467E1,3.770203376E0,-3.027302933E0,8.524820153E-1,4.909757849E0
1.005978467E1,4.025782249E0,-3.329213389E0,1.085087835E0,5.335541220E0
1.006973467E1,4.198621266E0,-3.057809027E0,8.399000497E-1,5.261563330E0
1.007968467E1,4.065860234E0,-3.405072241E0,1.118466081E0,5.420027932E0
1.008963467E1,3.806368698E0,-3.854351826E0,1.228498985E0,5.554608935E0
1.009958467E1,3.642299042E0,-4.052948413E0,1.259035484E0,5.592665152E0
1.010953467E1,3.576668140E0,-3.936847268E0,1.259308842E0,5.466002210E0
1.011948467E1,3.539028151E0,-4.383438304E0,1.261208310E0,5.773205177E0
1.012943467E1,3.432533982E0,-4.931452219E0,9.731861611E-1,6.086756265E0
1.013938467E1,3.545249296E0,-5.194673987E0,5.589331515E-1,6.313939869E0
1.014933467E1,3.293522569E0,-5.498195350E0,1.720342939E-1,6.411477117E0
1.015928467E1,3.031584265E0,-5.732744127E0,4.562697856E-1,6.501003038E0
1.016923467E1,2.634696316E0,-5.445074565E0,5.195600478E-1,6.071276995E0
1.017918467E1,2.113034048E0,-5.491112618E0,9.402145891E-1,5.958291210E0
1.018913467E1,1.373696021E0,-5.390658038E0,1.022410069E0,5.656107954E0
1.019908467E1,8.700553103E-1,-4.838724734E0,1.094969484E0,5.036785827E0
1.020903467E1,7.932239199E-1,-4.862153358E0,1.266759510E0,5.086690390E0
1.021898467E1,1.608563763E0,-5.298545680E0,8.116882575E-1,5.596507977E0
1.022893467E1,9.577542626E-1,-5.521596492E0,5.820868830E-1,5.634194369E0
1.023888467E1,-5.044388558E-1,-5.368948495E0,9.114500157E-1,5.469077403E0
1.024883467E1,-1.206561694E0,-5.163526454E0,9.495761275E-2,5.303471836E0
1.025878467E1,-2.577448859E0,-4.461102192E0,-5.136077285E-2,5.152408497E0
1.026873467E1,-3.594978696E0,-3.494974351E0,-6.987430014E-2,5.014339433E0
1.027868467E1,-4.055993643E0,-2.686274605E0,1.147328961E-1,4.866242834E0
1.028863467E1,-4.272200873E0,-2.275857369E0,5.430285788E-1,4.870945196E0
1.029858467E1,-4.054375134E0,-2.151337404E0,9.276034606E-1,4.682591006E0
1.030853467E1,-3.695456372E0,-1.979366698E0,1.099490551E0,4.333955445E0
1.031848467E1,-4.047730942E0,-2.018526671E0,1.280426792E0,4.700858270E0
1.032843467E1,-5.193675283E0,-1.767786954E0,1.253436629E0,5.627649335E0
1.033838467E1,-6.633247497E0,-9.619903511E-1,8.279499489E-1,6.753584153E0
1.034833467E1,-7.960077792E0,-3.095486730E-1,5.700269641E-1,7.986462896E0
1.035828467E1,-8.866187473E0,2.216059649E-1,5.656753932E-1,8.886978011E0
1.036823467E1,-9.246745902E0,4.901334965E-1,9.019230741E-1,9.303548025E0
1.037818467E1,-8.870682812E0,3.125974113E-1,1.432680101E0,8.991067955E0
1.038813467E1,-7.940861503E0,-1.781757706E-1,1.826722795E0,8.150211297E0
1.039808467E1,-7.388874405E0,-2.076702958E-1,1.831750816E0,7.615372806E0
1.040803467E1,-7.520931432E0,8.032144725E-2,1.757296464E0,7.723920766E0
1.041798467E1,-8.023803087E0,4.944312000E-1,1.925696275E0,8.266449319E0
1.042793467E1,-8.346267675E0,1.118278824E0,2.216638523E0,8.707710260E0
1.043788467E1,-8.272659416E0,1.310620644E0,2.538000911E0,8.751918013E0
1.044783467E1,-7.988749030E0,9.992996800E-1,2.622903652E0,8.467486904E0
1.045778467E1,-7.703727087E0,7.359896189E-1,2.303111241E0,8.074243813E0
1.046773467E1,-7.531059394E0,5.372585464E-1,1.835874857E0,7.770195546E0
1.047768467E1,-7.643204312E0,5.476893944E-1,1.339760243E0,7.779041930E0
1.048763467E1,-7.645107581E0,5.130323625E-1,9.842488738E-1,7.725258441E0
1.049758467E1,-6.960435466E0,1.093885410E-1,1.065651617E0,7.042388877E0
1.050753467E1,-5.982129629E0,-2.974455214E-1,1.179977474E0,6.104645409E0
1.051748454E1,-5.721639680E0,-4.182799870E-1,1.030893940E0,5.828795852E0
1.052743454E1,-6.136341755E0,-3.390215635E-1,6.799019569E-1,6.183194355E0
1.053738454E1,-6.884820442E0,-2.774322563E-1,3.911933817E-1,6.901503709E0
1.054733454E1,-7.582696155E0,-1.446279556E-1,2.110815614E-1,7.587012169E0
1.055728454E1,-7.948365819E0,-1.787926519E-1,2.629761851E-1,7.954724539E0
1.056723454E1,-7.553693381E0,-5.873422873E-1,5.768699241E-1,7.598423097E0
1.057718454E1,-6.230178457E0,-1.209490126E0,8.455214167E-1,6.402569518E0
1.058713454E1,-4.677506766E0,-1.925755332E0,1.187351983E0,5.195902989E0
1.059708454E1,-3.640365953E0,-2.315100957E0,1.375393760E0,4.528097250E0
1.060703454E1,-3.520662631E0,-2.228115438E0,1.488922130E0,4.424528549E0
1.061698454E1,-4.129434087E0,-2.058647341E0,1.540882827E0,4.864624820E0
1.062693454E1,-4.946482487E0,-1.927667372E0,1.455616390E0,5.504762444E0
1.063688454E1,-5.630452352E0,-1.820959194E0,1.348854418E0,6.069373469E0
1.064683454E1,-5.862447065E0,-2.026106417E0,1.262486365E0,6.329870822E0
1.065678454E1,-5.625275812E0,-2.589064645E0,1.412834651E0,6.351620694E0
1.066673454E1,-5.004759346E0,-3.338897547E0,1.513068792E0,6.203646517E0
1.067668454E1,-4.289089971E0,-4.221266947E0,1.568838219E0,6.219054653E0
1.068663454E1,-3.605138233E0,-4.536095071E0,1.610957029E0,6.014013861E0
1.069658454E1,-2.628912835E0,-4.685809520E0,1.891024625E0,5.695960646E0
1.070653454E1,-1.317470511E0,-5.062314659E0,2.081524280E0,5.629875806E0
1.071648454E1,-4.634621532E-1,-5.196133452E0,2.117073305E0,5.629973303E0
1.072643454E1,-5.147800952E-1,-4.981155306E0,1.898960466E0,5.355647261E0
1.073638454E1,-1.430538851E0,-4.775943764E0,1.616584535E0,5.241128295E0
1.074633454E1,-2.698676550E0,-4.565322379E0,1.152475534E0,5.427082402E0
1.075628454E1,-4.079996755E0,-4.641030958E0,8.639613421E-1,6.239548948E0
1.076623454E1,-5.628790573E0,-4.866167471E0,8.550149560E-1,7.489587422E0
1.077618454E1,-6.705975165E0,-5.221281157E0,8.368825941E-1,8.540038192E0
1.078613454E1,-6.888695977E0,-6.069751325E0,5.828750145E-1,9.199769382E0
1.079608454E1,-4.839929845E0,-7.540069953E0,9.922001369E-1,9.014545852E0
1.080603454E1,-1.026819016E0,-8.977100968E0,5.577786188E-1,9.052834698E0
1.081598454E1,1.871095560E0,-9.265584462E0,-1.170315462E0,9.524793556E0
1.082593454E1,2.333643647E0,-8.700523574E0,-2.355540301E0,9.310938366E0
1.083588454E1,7.066325033E-1,-7.925224879E0,-2.606688738E0,8.372774036E0
1.084583454E1,-1.334069733E0,-6.109097824E0,-2.216049124E0,6.634130839E0
1.085578454E1,-2.389253007E0,-4.754260535E0,8.794096311E-2,5.321584048E0
1.086573454E1,-9.883191937E-1,-4.440015378E0,3.126786876E0,5.519719880E0
1.087568454E1,4.359820231E0,-4.468153642E0,4.338890122E0,7.602525692E0
1.088563454E1,9.607663534E0,-5.256927538E0,3.773529857E0,1.158369601E1
1.089558454E1,1.227588778E1,-7.045578527E0,2.862506762E0,1.444062127E1
1.090553454E1,1.268814923E1,-8.559147255E0,1.302274328E0,1.536047041E1
1.091548454E1,1.128006369E1,-7.507934825E0,-5.266797638E-1,1.356046879E1
1.092543454E1,9.013561866E0,-5.396067882E0,-1.650872462E0,1.063424779E1
1.093538454E1,6.801536795E0,-4.745705181E0,-1.516626238E0,8.431060170E0
1.094533454E1,4.965408170E0,-4.874898826E0,-7.622406936E-1,7.000066266E0
1.095528454E1,4.054078680E0,-4.482078493E0,-8.335733989E-2,6.044131865E0
1.096523454E1,4.282776148E0,-3.585001007E0,9.052891335E-2,5.585928681E0
1.097518454E1,4.944446486E0,-2.954462999E0,1.484005791E-1,5.761807477E0
1.098513454E1,5.192083670E0,-2.637547126E0,4.117878234E-1,5.838146700E0
1.099508454E1,4.898882058E0,-2.276501586E0,3.824114120E-1,5.415509522E0
1.100503454E1,4.410534301E0,-2.077287388E0,1.711205568E-1,4.878239227E0
1.101498454E1,3.806385947E0,-2.059244634E0,1.394040348E-1,4.329953340E0
1.102493454E1,2.974250561E0,-1.845844944E0,2.227683731E-1,3.507554092E0
1.103488454E1,2.046516123E0,-1.251096573E0,4.624369901E-1,2.442809622E0
1.104483454E1,1.423640306E0,-8.091157749E-1,6.152101171E-1,1.749257999E0
1.105478454E1,9.802231389E-1,-4.369741201E-1,7.371777731E-1,1.302004168E0
1.106473454E1,6.279529542E-1,-1.952443779E-1,8.963459998E-1,1.111702042E0
1.107468454E1,4.909620470E-1,-4.589479566E-3,1.038195359E0,1.148439984E0
1.108463454E1,7.208295429E-1,3.062917739E-2,1.082479831E0,1.300882762E0
1.109458454E1,1.062876456E0,-8.611486852E-2,1.024809328E0,1.478971362E0
1.110453454E1,1.159245586E0,-1.754457057E-1,7.775083584E-1,1.406822936E0
1.111448454E1,8.731395704E-1,-2.059444901E-1,3.903776586E-1,9.783560490E-1
1.112443454E1,3.628127146E-1,-9.971110672E-2,4.381960055E-2,3.788080359E-1
1.113438454E1,-2.941693264E-1,-3.903016448E-4,3.005817851E-2,2.957012666E-1
1.114433454E1,-8.673081422E-1,1.430562240E-1,1.206075845E-1,8.872624675E-1
1.115428454E1,-1.253110355E0,9.240501076E-2,1.519983709E-1,1.265672845E0
1.116423454E1,-1.584985451E0,1.675154194E-1,2.312731665E-1,1.610505378E0
1.117418454E1,-1.624616709E0,3.729082248E-1,2.928513640E-1,1.692395320E0
1.118413454E1,-1.350874046E0,3.679035929E-1,2.610407567E-1,1.424203644E0
1.119408454E1,-9.767113012E-1,1.648371023E-1,2.549894732E-1,1.022817612E0
1.120403454E1,-6.588747847E-1,8.277493894E-2,1.620351166E-1,6.835371617E-1
1.121398454E1,-3.911044675E-1,1.266922063E-1,2.735093594E-2,4.120214719E-1
1.122393454E1,-2.711669648E-1,4.927536339E-2,-7.388892531E-2,2.853404239E-1
1.123388454E1,-4.327471679E-1,-5.432881951E-2,-1.414453161E-1,4.585068259E-1
1.124383454E1,-6.926909870E-1,-1.038158521E-1,-2.393171811E-1,7.401832528E-1
1.125378454E1,-9.142063200E-1,-2.074261746E-1,-2.728989100E-1,9.763568142E-1
1.126373454E1,-1.063003925E0,-2.003577679E-1,-1.738961935E-1,1.095609632E0
1.127368454E1,-9.581306040E-1,-7.919176519E-2,-1.766221654E-1,9.774870738E-1
1.128363454E1,-7.777211970E-1,-1.176108956E-2,-2.479815853E-1,8.163843765E-1
1.129358454E1,-6.284148842E-1,-7.314165115E-2,-3.108379841E-1,7.048937652E-1
1.130353454E1,-5.465129346E-1,-1.612425265E-1,-3.423088682E-1,6.647186632E-1
1.131348454E1,-3.839457214E-1,-1.625686750E-1,-3.770612097E-1,5.621548247E-1
1.132343454E1,-2.103582609E-1,-7.770861894E-2,-3.073834491E-1,3.804915402E-1
1.133338454E1,-3.540430605E-2,-1.480058920E-1,-2.276625109E-1,2.738419760E-1
1.134333454E1,-5.810378194E-3,-2.499263692E-1,-1.013942277E-1,2.697734975E-1
1.135328454E1,2.865135670E-4,-1.689047179E-1,-8.984714627E-2,1.913149119E-1
1.136323454E1,-7.142373919E-2,-1.646280643E-1,-9.394838333E-2,2.025587540E-1
1.137318454E1,-2.428383744E-1,-1.838551712E-1,-1.343994212E-1,3.329210184E-1
1.138313454E1,-4.214193571E-1,-8.266998142E-2,-2.045274174E-1,4.756680195E-1
1.139308454E1,-6.025386161E-1,-3.273066670E-2,-1.724016452E-1,6.275718347E-1
1.140303454E1,-6.842943853E-1,3.652755618E-3,-1.392128491E-1,6.983211051E-1
1.141298454E1,-6.980446976E-1,5.430309176E-2,-2.360988736E-2,7.005516772E-1
1.142293454E1,-4.992832196E-1,8.226476938E-2,6.689039290E-2,5.104170357E-1
1.143288454E1,-8.435894966E-2,5.177124739E-3,1.121016490E-1,1.403923599E-1
1.144283454E1,3.489437038E-1,-4.159738451E-2,4.447801530E-2,3.542179338E-1
1.145278454E1,5.751549357E-1,-5.328801513E-2,-2.489919841E-2,5.781546356E-1
1.146273454E1,5.208436579E-1,-1.476114973E-1,-5.882649779E-2,5.445436869E-1
1.147268454E1,2.962234533E-1,-1.531511495E-1,-5.200396657E-2,3.375026243E-1
1.148263454E1,6.349842310E-2,-1.609030956E-1,-9.928923011E-2,1.994497609E-1
1.149258454E1,-1.187177736E-1,-2.651168507E-1,-1.001323986E-1,3.072577933E-1
1.150253454E1,-6.624661446E-2,-2.708728498E-1,1.873214006E-2,2.794845394E-1
1.151248404E1,2.955609637E-1,-2.032401529E-1,1.327417356E-1,3.824698830E-1
1.152243404E1,6.229307806E-1,-2.328174162E-1,1.869951260E-1,6.908066907E-1
1.153238404E1,6.901579732E-1,-2.845746303E-1,1.791382223E-1,7.677182106E-1
1.154233404E1,4.997164983E-1,-1.632984075E-1,5.913815439E-2,5.290371157E-1
1.155228404E1,2.019967425E-1,-9.795577258E-2,1.131260812E-1,2.513872065E-1
1.156223404E1,-3.337941527E-2,-2.812510729E-4,2.258030963E-1,2.282570979E-1
1.157218404E1,-1.535829663E-1,4.898768038E-2,2.207879394E-1,2.733767265E-1
1.158213404E1,-1.094592923E-1,-5.600843221E-2,1.448027873E-1,1.899634922E-1
1.159208404E1,1.331872934E-1,-2.508777112E-1,-9.456116582E-3,2.841969374E-1
1.160203404E1,5.124347770E-1,-3.511785096E-1,-1.439841771E-1,6.376889442E-1
1.161198404E1,8.004119021E-1,-3.277159721E-1,-2.933360982E-1,9.132924164E-1
1.162193404E1,8.364488769E-1,-3.487372971E-1,-2.406000602E-1,9.376314921E-1
1.163188404E1,6.934932250E-1,-2.810955369E-1,-4.222391367E-2,7.494867663E-1
1.164183404E1,4.515722787E-1,-1.523509580E-1,1.143820632E-1,4.901138579E-1
1.165178404E1,1.833669287E-1,-1.380258644E-1,1.592758155E-1,2.793624083E-1
1.166173404E1,1.373335540E-2,-2.297873890E-1,7.993962407E-2,2.436825655E-1
1.167168404E1,-1.003189248E-1,-3.285854530E-1,-4.294428607E-2,3.462318563E-1
1.168163404E1,-1.876371503E-1,-3.486992902E-1,-2.134444213E-1,4.498415456E-1
1.169158404E1,-2.463911426E-1,-3.233109722E-1,-2.091163123E-1,4.571304102E-1
1.170153404E1,-2.075755709E-1,-2.271961954E-1,-1.579918583E-2,3.081482486E-1
1.171148404E1,-3.147556186E-3,-4.743173629E-2,8.374616146E-2,9.629691728E-2
1.172143404E1,1.756141055E-1,-3.135130852E-2,7.287617843E-2,1.927022469E-1
1.173138404E1,1.852614266E-1,-9.985494822E-2,6.368202567E-2,2.198822577E-1
1.174133404E1,2.069317925E-1,-8.937439889E-2,1.707270026E-2,2.260531509E-1
1.175128404E1,2.177731150E-1,-2.263755387E-1,-4.209761381E-2,3.169277887E-1
1.176123404E1,1.999853003E-1,-3.816980517E-1,-2.964654366E-2,4.319333751E-1
1.177118404E1,1.697370690E-1,-3.066852915E-1,-4.761621594E-2,3.537426249E-1
1.178113404E1,9.230765462E-2,-1.908016634E-1,-6.878311833E-2,2.228387202E-1
1.179108404E1,1.595529735E-2,-1.380369741E-1,-2.065353513E-2,1.404825478E-1
1.180103404E1,8.358653247E-2,-6.294293761E-2,-7.494961023E-3,1.049032709E-1
1.181098404E1,2.359719890E-1,-1.153041691E-1,-5.816342354E-2,2.689996559E-1
1.182093404E1,2.287547708E-1,-1.727337670E-1,-1.258800280E-1,3.130678535E-1
1.183088404E1,1.166192079E-1,-2.122197220E-1,-1.604873586E-1,2.905054944E-1
1.184083404E1,-1.715339184E-2,-2.548780838E-1,-1.359232239E-1,2.893651659E-1
1.185078404E1,-1.857888454E-1,-1.918740427E-1,2.849580249E-2,2.685984999E-1
1.186073404E1,-2.659781456E-1,4.198096186E-2,1.582057933E-1,3.123072976E-1
1.187068404E1,-1.493168378E-1,1.667532349E-1,1.862876129E-1,2.912133824E-1
1.188063404E1,1.959676784E-1,-2.533306181E-3,5.434754888E-2,2.033799516E-1
1.189058404E1,4.066001737E-1,-1.531531960E-1,-1.579262781E-1,4.622989423E-1
1.190053404E1,3.952489740E-1,-2.267029828E-1,-3.294122493E-1,5.622529892E-1
1.191048404E1,2.616009200E-1,-2.845065102E-1,-3.358733861E-1,5.120448488E-1
1.192043404E1,1.766747904E-1,-2.508005279E-1,-2.914907169E-1,4.231804868E-1
1.193038404E1,6.003043950E-2,-2.813209471E-1,-2.484049419E-1,3.800659734E-1
1.194033404E1,-1.883908564E-1,-2.461455595E-1,-2.195980493E-1,3.798711025E-1
1.195028404E1,-3.790440005E-1,-8.619175941E-2,-2.242032981E-1,4.487432368E-1
1.196023404E1,-3.622005111E-1,-1.577257186E-2,-2.358754917E-1,4.325219438E-1
1.197018404E1,-2.715014255E-1,-9.111277610E-2,-1.318219686E-1,3.152643231E-1
1.198013404E1,-1.168922728E-1,-1.198076946E-1,-1.556762695E-2,1.681072221E-1
1.199008404E1,1.329709464E-1,-1.510183775E-1,2.542486310E-2,2.028157948E-1
1.200003404E1,3.475643456E-1,-2.916333890E-1,-4.134569842E-2,4.555880537E-1
1.200998404E1,3.551043302E-1,-3.765802762E-1,-1.338146996E-1,5.346196438E-1
1.201993404E1,2.462701052E-1,-3.421147406E-1,-1.759240444E-1,4.567720765E-1
1.202988404E1,1.870880967E-1,-2.867413160E-1,-1.452600396E-1,3.719180250E-1
1.203983404E1,3.566965270E-1,-3.101787105E-1,-4.753903270E-2,4.750823134E-1
1.204978404E1,7.624903697E-1,-3.398144460E-1,-4.010959703E-2,8.357476900E-1
1.205973404E1,1.184051229E0,-3.871698761E-1,-1.219565463E-1,1.251699335E0
1.206968404E1,1.326540273E0,-5.673196667E-1,-1.686290216E-1,1.452582682E0
1.207963404E1,1.217052330E0,-6.961578012E-1,-1.846527680E-1,1.414195426E0
1.208958404E1,9.837332225E-1,-6.912174886E-1,-1.083453977E-1,1.207166681E0
1.209953404E1,7.497130340E-1,-6.089079881E-1,3.155738633E-2,9.663510956E-1
1.210948404E1,6.734787905E-1,-5.345056772E-1,1.404793195E-1,8.712086085E-1
1.211943404E1,8.359922093E-1,-5.951126522E-1,1.986123741E-1,1.045221947E0
1.212938404E1,1.394370899E0,-7.674938321E-1,2.290108788E-1,1.608030773E0
1.213933404E1,2.046025541E0,-9.278303325E-1,9.317070365E-2,2.248504041E0
1.214928404E1,2.425581173E0,-1.124812503E0,-1.985476892E-2,2.673769139E0
1.215923404E1,2.535193078E0,-1.365524830E0,-2.718955278E-2,2.879687704E0
1.216918404E1,2.650605420E0,-1.499392739E0,1.128547704E-1,3.047396246E0
1.217913404E1,2.857937747E0,-1.544504008E0,4.269999031E-1,3.276527081E0
1.218908404E1,3.200407414E0,-1.655597012E0,8.178839672E-1,3.694934812E0
1.219903404E1,3.640084117E0,-1.819373429E0,9.257229960E-1,4.173403302E0
1.220898404E1,3.645171195E0,-2.039696515E0,8.505546999E-1,4.262754768E0
1.221893404E1,3.403563074E0,-2.364369012E0,7.897963551E-1,4.218798491E0
1.222888404E1,3.557009801E0,-2.747710716E0,6.078063726E-1,4.535599352E0
1.223883404E1,4.510182551E0,-3.237609154E0,5.685972834E-1,5.580964302E0
1.224878404E1,5.530257388E0,-3.572163445E0,6.418337325E-1,6.614835523E0
1.225873404E1,5.508481772E0,-3.708802934E0,7.740859830E-1,6.685641312E0
1.226868404E1,4.762753615E0,-3.916914695E0,7.855712302E-1,6.216362673E0
1.227863404E1,3.789930128E0,-3.928862895E0,7.731820766E-1,5.513378687E0
1.228858404E1,3.548082272E0,-4.103326269E0,9.940700034E-1,5.514920620E0
1.229853404E1,4.243037885E0,-4.659833264E0,9.935343254E-1,6.380009953E0
1.230848404E1,4.693540708E0,-5.132835588E0,1.012254625E0,7.028512288E0
1.231843404E1,4.506960150E0,-5.383387610E0,1.070672987E0,7.102104800E0
1.232838404E1,3.690388298E0,-5.599470295E0,7.920193934E-1,6.752801499E0
1.233833404E1,3.128936020E0,-6.051927842E0,6.186729844E-1,6.840966853E0
1.234828404E1,3.071037768E0,-6.540332901E0,4.505114476E-1,7.239488103E0
1.235823404E1,3.091218263E0,-7.125979496E0,1.327238285E-1,7.768708370E0
1.236818404E1,3.222355230E0,-7.556701773E0,2.136644228E-1,8.217844450E0
1.237813404E1,2.956906842E0,-7.138401906E0,2.009992806E-1,7.729196631E0
1.238808404E1,2.116475427E0,-6.088501591E0,-7.355548784E-2,6.446295856E0
1.239803404E1,1.004172311E0,-5.669521692E0,-8.103531919E-2,5.758333524E0
1.240798404E1,-6.054484829E-2,-5.900986063E0,5.183447041E-2,5.901524295E0
1.241793404E1,-8.967220489E-1,-5.984892438E0,-1.198023590E-1,6.052883654E0
1.242788404E1,-1.258890620E0,-5.529573848E0,-1.418604684E-1,5.672840288E0
1.243783404E1,-1.482920255E0,-4.753575826E0,-3.906298198E-2,4.979664801E0
1.244778404E1,-1.215813597E0,-4.309622469E0,-3.131921462E-1,4.488779104E0
1.245773404E1,-1.052435814E0,-3.995844505E0,-1.234748343E0,4.312655553E0
1.246768404E1,-2.791810416E0,-3.370160855E0,-3.010017979E-1,4.386660651E0
1.247763404E1,-4.144747944E0,-3.055281276E0,-2.111406549E-1,5.153470634E0
1.248758404E1,-5.220419862E0,-2.215308282E0,4.827927193E-2,5.671217260E0
1.249753404E1,-5.842460697E0,-1.240604330E0,6.489017737E-1,6.007871471E0
1.250748404E1,-6.000793941E0,-6.016644573E-1,1.038530404E0,6.119646513E0
1.251743408E1,-6.056431367E0,-5.153133613E-1,1.363283592E0,6.229321867E0
1.252738408E1,-6.352737266E0,-7.504357499E-1,1.483060296E0,6.566573873E0
1.253733408E1,-6.934043473E0,-7.368953526E-1,1.126425750E0,7.063484170E0
1.254728408E1,-7.318920656E0,-8.275470757E-1,9.797039793E-1,7.430427553E0
1.255723408E1,-7.285797933E0,-9.175187677E-1,1.053701590E0,7.418556413E0
1.256718408E1,-7.310310631E0,-2.012822127E-1,1.377875903E0,7.441753695E0
1.257713408E1,-7.440771368E0,-4.670475197E-1,2.260965680E0,7.790710991E0
1.258708408E1,-7.872598768E0,-3.884106553E-1,2.458369435E0,8.256649108E0
1.259703408E1,-8.498644361E0,1.229873520E0,2.272201690E0,8.882704845E0
1.260698408E1,-9.189878222E0,1.362970181E0,2.610283606E0,9.650136266E0
1.261693408E1,-8.917984448E0,8.827635026E-1,3.316431375E0,9.555544730E0
1.262688408E1,-7.788888860E0,7.455468929E-1,3.079227378E0,8.408583179E0
1.263683408E1,-7.093509323E0,2.419349796E-1,2.793960437E0,7.627753403E0
1.264678408E1,-7.085541907E0,1.044786340E-1,2.036576441E0,7.373158312E0
1.265673408E1,-7.301332816E0,1.357407725E-1,1.373865737E0,7.430706124E0
1.266668408E1,-7.464625084E0,1.021876949E-1,1.026421405E0,7.535556440E0
1.267663408E1,-7.266315596E0,1.052440345E-2,1.116673252E0,7.351626504E0
1.268658408E1,-6.849269371E0,-2.306948769E-1,1.386202338E0,6.991943075E0
1.269653408E1,-6.922432657E0,-1.742230529E-1,1.468364489E0,7.078596036E0
1.270648408E1,-7.402031225E0,3.173342407E-2,1.345924378E0,7.523468994E0
1.271643408E1,-7.945417069E0,1.223716986E-1,1.200237492E0,8.036491602E0
1.272638408E1,-8.190697825E0,1.126150346E-1,9.464724255E-1,8.245970110E0
1.273633408E1,-7.540161754E0,-6.505226219E-1,1.207445354E0,7.663885650E0
1.274628408E1,-6.562564015E0,-1.122237389E0,1.180451099E0,6.761666068E0
1.275623408E1,-6.047525473E0,-1.301893675E0,9.767300123E-1,6.262706524E0
1.276618408E1,-6.110479521E0,-1.705674321E0,8.330569071E-1,6.398536448E0
1.277613408E1,-6.523342062E0,-2.056728870E0,5.341747248E-1,6.860719200E0
1.278608408E1,-6.646192063E0,-2.155764915E0,1.848258090E-1,6.989517286E0
1.279603408E1,-6.404444194E0,-2.159190799E0,1.546272608E-1,6.760393475E0
1.280598408E1,-5.896945637E0,-2.322834485E0,6.354274499E-1,6.369717100E0
1.281593408E1,-5.317192451E0,-2.543669202E0,1.213003718E0,6.017820751E0
1.282588408E1,-4.864409506E0,-2.675922110E0,1.727171609E0,5.814306558E0
1.283583408E1,-4.582358242E0,-2.681520234E0,2.153432461E0,5.729382967E0
1.284578408E1,-4.462633578E0,-2.785081440E0,2.423520030E0,5.791824101E0
1.285573408E1,-4.478245059E0,-3.244157451E0,2.482312614E0,6.061444736E0
1.286568408E1,-4.401374638E0,-3.794188070E0,2.448332105E0,6.305734843E0
1.287563408E1,-3.621440270E0,-4.965771866E0,2.120037843E0,6.501406026E0
1.288558408E1,-2.536917714E0,-6.235576606E0,1.620538276E0,6.924197528E0
1.289553408E1,-1.838560483E0,-6.614625869E0,1.004957592E0,6.938553149E0
1.290548408E1,-1.350125018E0,-6.362209756E0,2.370825946E-1,6.508207026E0
1.291543408E1,-1.349292374E0,-5.859854409E0,-1.235178991E-1,6.014460930E0
1.292538408E1,-1.752993791E0,-5.671392801E0,5.818900511E-2,5.936418912E0
1.293533408E1,-2.162810225E0,-5.622336416E0,2.952060378E-1,6.031215587E0
1.294528408E1,-2.368727526E0,-5.657999754E0,7.185527102E-1,6.175771151E0
1.295523408E1,-1.991120186E0,-5.953492890E0,1.714789546E0,6.507621714E0
1.296518408E1,-5.104771292E-1,-6.070402704E0,2.536295278E0,6.598724849E0
1.297513408E1,1.540167128E0,-5.882453313E0,2.340993451E0,6.515797887E0
1.298508408E1,2.600281944E0,-5.791719729E0,1.488963060E0,6.520927434E0
1.299503408E1,2.589662815E0,-5.952041611E0,4.102817269E-1,6.503959097E0
1.300498408E1,1.839408914E0,-6.164078608E0,-7.553398097E-1,6.476868723E0
1.301493408E1,1.246730458E0,-5.989468469E0,-2.131376764E0,6.478490278E0
1.302488408E1,1.355439552E0,-5.935302202E0,-2.403645198E0,6.545421212E0
1.303483408E1,2.247546321E0,-6.382262782E0,-1.710991194E0,6.979414986E0
1.304478408E1,5.264033074E0,-6.663067712E0,-6.580701347E-1,8.517016605E0
1.305473408E1,8.680401551E0,-6.610988317E0,-1.483063658E-1,1.091221941E1
1.306468408E1,1.004055805E1,-6.057252316E0,-2.329893243E-1,1.172848650E1
1.307463408E1,9.365822110E0,-5.140284356E0,-7.614945889E-1,1.071078994E1
1.308458408E1,7.202278644E0,-4.223672200E0,-1.065111262E0,8.417047375E0
1.309453408E1,4.629249988E0,-3.605603963E0,-9.559273732E-1,5.945093147E0
1.310448408E1,2.497457487E0,-3.133240155E0,-5.161700515E-1,4.039915753E0
1.311443408E1,1.100697416E0,-2.692437278E0,1.860665882E-1,2.914682500E0
1.312438408E1,4.806808877E-1,-2.212090559E0,7.150454772E-1,2.373960571E0
1.313433408E1,6.893680143E-1,-2.045953328E0,9.605560291E-1,2.363011038E0
1.314428408E1,1.398982598E0,-2.105856591E0,8.031501532E-1,2.652703236E0
1.315423408E1,2.461723983E0,-2.180984249E0,4.440936899E-1,3.318734166E0
1.316418408E1,3.551720409E0,-2.315594170E0,4.137875712E-1,4.260036899E0
1.317413408E1,4.117873557E0,-2.038567125E0,1.720391178E-1,4.598068726E0
1.318408408E1,3.896874533E0,-1.571919263E0,-3.671230992E-2,4.202131493E0
1.319403408E1,3.126192214E0,-1.503650974E0,4.768053532E-2,3.469339626E0
1.320398408E1,2.252426991E0,-1.528838732E0,1.410781109E-1,2.725927045E0
1.321393408E1,1.281910815E0,-1.189092114E0,9.523477077E-2,1.751086821E0
1.322388408E1,5.479028177E-1,-8.136704636E-1,2.449082887E-1,1.011057462E0
1.323383408E1,3.915166962E-1,-6.072245747E-1,4.185916436E-1,8.350005818E-1
1.324378408E1,6.395473981E-1,-3.946961197E-1,5.368188357E-1,9.235693605E-1
1.325373408E1,9.893851411E-1,-2.771246928E-1,5.088551116E-1,1.146566430E0
1.326368408E1,1.307800532E0,-2.173067996E-1,4.649413526E-1,1.404896771E0
1.327363408E1,1.520359685E0,-2.029495463E-1,4.091483903E-1,1.587477400E0
1.328358408E1,1.345950106E0,-1.442318067E-1,3.899660146E-1,1.408707916E0
1.329353408E1,9.772650325E-1,-7.976391524E-2,4.667539895E-1,1.085941303E0
1.330348408E1,5.609345073E-1,-2.277841330E-2,4.176490724E-1,6.997121731E-1
1.331343408E1,1.292983103E-1,6.186792701E-2,2.885507369E-1,3.221912805E-1
1.332338408E1,-2.013599807E-1,9.623610646E-2,2.564740813E-1,3.399796823E-1
1.333333408E1,-3.650141913E-1,6.370132148E-2,3.136797309E-1,4.854772824E-1
1.334328408E1,-3.512627095E-1,1.087541181E-1,2.855768430E-1,4.655825196E-1
1.335323408E1,-2.191267455E-1,1.652388060E-1,1.731851721E-1,3.245204114E-1
1.336318408E1,-5.205074430E-2,7.893390298E-2,2.340979564E-1,2.524711750E-1
1.337313408E1,4.680520713E-2,8.866279274E-2,4.172187173E-1,4.290958824E-1
1.338308408E1,4.759750485E-2,2.452433342E-1,4.038356102E-1,4.748610486E-1
1.339303408E1,2.774562299E-2,3.085584471E-1,4.777947021E-1,5.694435109E-1
1.340298408E1,1.749241340E-1,2.446293765E-1,4.705359685E-1,5.584318062E-1
1.341293408E1,1.985059547E-1,1.021186978E-1,3.375340319E-1,4.046752589E-1
1.342288408E1,5.251969099E-2,-4.324483752E-2,2.238021791E-1,2.339141921E-1
1.343283408E1,-8.542197347E-2,-1.294421518E-1,1.402934329E-1,2.091277875E-1
1.344278408E1,-2.798746383E-1,-1.703346545E-1,1.696370634E-1,3.689450378E-1
1.345273408E1,-3.682395154E-1,-1.168867180E-1,1.270190473E-1,4.066899113E-1
1.346268408E1,-3.870289582E-1,-6.557359993E-3,2.192589839E-2,3.877049890E-1
1.347263408E1,-4.219374204E-1,5.917996198E-2,-1.482844753E-3,4.260700100E-1
1.348258408E1,-3.160156935E-1,9.017926812E-2,1.614918919E-1,3.661664241E-1
1.349253408E1,-1.188399804E-1,1.928055042E-1,1.850760881E-1,2.924894216E-1
1.350248408E1,-7.215931892E-2,3.008521092E-1,8.850363884E-3,3.095113695E-1
1.351243408E1,-1.386170179E-1,2.286091751E-1,-2.323098596E-1,3.541817379E-1
1.352238479E1,-1.760251647E-1,-3.489033580E-2,-1.361032816E-1,2.252249929E-1
1.353233479E1,6.212725103E-2,-2.011678997E-1,-4.474168818E-2,2.152443677E-1
1.354228479E1,6.660738766E-2,-9.799114823E-2,-1.051294291E-1,1.584014081E-1
1.355223479E1,-9.761341810E-2,-6.785723001E-2,-2.106365701E-1,2.418692781E-1
1.356218479E1,-2.722603941E-1,-1.144864359E-1,-2.915760497E-1,4.150294676E-1
1.357213479E1,-4.601881510E-1,-1.625935256E-1,-2.535340647E-1,5.499902825E-1
1.358208479E1,-5.814950716E-1,-1.539750221E-1,1.883168891E-4,6.015354198E-1
1.359203479E1,-5.427280319E-1,1.238791108E-2,1.796335180E-1,5.718176088E-1
1.360198479E1,-4.334687144E-1,1.254561049E-1,1.674092925E-1,4.813109512E-1
1.361193479E1,-3.540483230E-1,5.286438435E-2,8.591080070E-2,3.681379142E-1
1.362188479E1,-2.944535011E-1,-9.606244415E-2,-3.686433753E-2,3.119131880E-1
1.363183479E1,-1.649265647E-1,-2.630688635E-1,-5.531502552E-3,3.105424225E-1
1.364178479E1,9.966579080E-2,-2.605785343E-1,-1.689611435E-1,3.261630120E-1
1.365173479E1,1.186505306E-1,-1.156079319E-1,-4.313911621E-1,4.621054826E-1
1.366168479E1,-3.342443883E-2,-8.885341197E-2,-6.926868939E-1,6.991618232E-1
1.367163479E1,-1.764490879E-1,-1.892860651E-1,-8.678308833E-1,9.055903804E-1
1.368158479E1,-2.319526130E-1,-3.214898568E-1,-8.115958714E-1,9.032417181E-1
1.369153479E1,-2.049811614E-1,-3.156411794E-1,-6.750470138E-1,7.728745703E-1
1.370148479E1,-1.927546334E-1,-2.571362785E-1,-5.034475700E-1,5.972711864E-1
1.371143479E1,-2.101834291E-1,-1.943330893E-1,-3.517732080E-1,4.535270811E-1
1.372138479E1,-3.304729342E-1,-4.799277663E-2,-1.665649545E-1,3.731749602E-1
1.373133479E1,-3.909951246E-1,1.084898239E-1,2.837074516E-2,4.067580712E-1
1.374128479E1,-2.245015061E-1,1.460426894E-1,1.435035360E-1,3.038464385E-1
1.375123479E1,7.645468354E-2,5.750356525E-2,1.720239151E-1,1.968354795E-1
1.376118479E1,3.792217559E-1,-6.816216230E-2,8.429579973E-2,3.944122239E-1
1.377113479E1,4.792974365E-1,-1.748682931E-1,-7.802528221E-2,5.161326353E-1
1.378108479E1,4.021714926E-1,-1.460245630E-1,-2.525154797E-1,4.968190314E-1
1.379103479E1,1.013456959E-1,-2.221316296E-1,-2.618313368E-1,3.580070668E-1
1.380098479E1,-1.948596311E-1,-1.978206611E-1,-2.396609791E-1,3.667978662E-1
1.381093479E1,-3.630425102E-1,-1.018032405E-1,-2.018598811E-1,4.276811611E-1
1.382088479E1,-4.573241848E-1,-2.905247569E-2,-7.399885297E-2,4.641823850E-1
1.383083479E1,-4.034245509E-1,3.898806453E-2,3.360277891E-2,4.066947064E-1
1.384078479E1,-1.256859004E-1,4.220549494E-2,1.191124606E-1,1.782302658E-1
1.385073479E1,2.275519985E-1,-5.991495699E-2,2.259177383E-1,3.262032167E-1
1.386068479E1,4.677614647E-1,-8.693815649E-2,1.872032869E-1,5.112769323E-1
1.387063479E1,4.977436477E-1,-1.774860916E-1,2.400761132E-1,5.804193240E-1
1.388058479E1,3.938549978E-1,-1.162473249E-1,5.738691330E-2,4.146425661E-1
1.389053479E1,2.384102780E-1,-1.361530012E-1,-7.718324661E-2,2.851917845E-1
1.390048379E1,4.301796556E-2,-2.193606341E-1,-1.156392145E-1,2.516784875E-1
1.391043479E1,-1.424615622E-1,-1.147273412E-1,-1.541010662E-1,2.391752456E-1
1.392038379E1,-2.167855203E-1,-3.777389020E-2,-2.168346735E-1,3.089338185E-1
1.393033479E1,-1.712041354E-1,-6.788061887E-2,-1.590653157E-1,2.433524380E-1
1.394028479E1,-4.487270236E-2,-3.652521729E-2,-1.043189867E-1,1.192899908E-1
1.395023379E1,1.338047594E-1,-5.284450382E-2,-1.275102135E-1,1.922371186E-1
1.396018479E1,3.432280505E-1,-1.163315248E-1,-7.967883825E-2,3.710623069E-1
1.397013379E1,5.122967827E-1,-2.259638947E-1,-3.417931437E-2,5.609598032E-1
1.398008479E1,8.088482648E-1,-3.042326769E-1,-1.796907659E-1,8.826561100E-1
1.399003479E1,1.148299599E0,-5.745219746E-1,-2.153494442E-1,1.301938113E0
1.399998479E1,1.447965308E0,-7.433088711E-1,-3.329381204E-1,1.661312554E0
1.400993379E1,1.752115247E0,-8.971546698E-1,-4.273589587E-1,2.014306337E0
1.401988379E1,2.171329034E0,-1.128744463E0,-4.232179606E-1,2.483515105E0
1.402983479E1,2.648168301E0,-1.324345813E0,-3.755806947E-1,2.984585070E0
1.403978379E1,3.153561276E0,-1.550700887E0,-2.232595392E-1,3.521287660E0
1.404973379E1,3.463177192E0,-1.583371035E0,1.551385084E-2,3.808004829E0
1.405968379E1,3.419689695E0,-1.452571744E0,3.528946674E-1,3.732127668E0
1.406963379E1,3.265871671E0,-1.348146320E0,7.093304086E-1,3.603687819E0
1.407958379E1,3.082937436E0,-1.354927336E0,1.032065211E0,3.522142802E0
1.408953379E1,3.186327903E0,-1.511043316E0,1.239491605E0,3.737950889E0
1.409948379E1,3.615015934E0,-1.807770215E0,1.333173355E0,4.256022151E0
1.410943379E1,4.203163968E0,-2.091289423E0,1.261534438E0,4.861229055E0
1.411938379E1,4.882104642E0,-2.490399313E0,1.014197216E0,5.573655037E0
1.412933379E1,5.436969155E0,-3.080096859E0,5.744222796E-1,6.275156668E0
1.413928379E1,5.690154762E0,-3.715823101E0,3.082430629E-1,6.802956440E0
1.414923379E1,5.471411009E0,-3.813454061E0,2.170860672E-1,6.672772787E0
1.415918379E1,4.985543641E0,-3.852057379E0,1.923969300E-1,6.303253765E0
1.416913379E1,4.865703787E0,-3.952559906E0,7.165272347E-1,6.309612859E0
1.417908379E1,5.310370504E0,-4.456781684E0,1.465042101E0,7.085851130E0
1.418903379E1,5.440720729E0,-4.876711755E0,1.900141604E0,7.549456782E0
1.419898379E1,5.157369921E0,-5.092612592E0,1.928702767E0,7.500204122E0
1.420893379E1,4.675432466E0,-5.317363774E0,1.687639754E0,7.278884131E0
1.421888379E1,4.296743976E0,-5.641069141E0,1.450910550E0,7.238011556E0
1.422883379E1,4.746024147E0,-6.134050816E0,1.269545270E0,7.858948391E0
1.423878379E1,5.329873307E0,-6.884831552E0,1.207098030E0,8.790081946E0
1.424873379E1,4.894422095E0,-7.892841244E0,9.230743535E-1,9.332972560E0
1.425868379E1,3.358988872E0,-8.542717164E0,5.023506689E-1,9.193104970E0
1.426863379E1,1.426886388E0,-8.234125680E0,5.702766037E-1,8.376278761E0
1.427858379E1,2.395355746E-1,-7.342230581E0,6.538229366E-1,7.375175363E0
1.428853379E1,3.466776153E-1,-6.777384287E0,1.019768443E0,6.862437673E0
1.429848379E1,9.558751868E-1,-6.868502617E0,1.292910597E0,7.054193320E0
1.430843379E1,1.427870036E0,-7.448126580E0,1.742980142E0,7.781476863E0
1.431838379E1,1.227015547E0,-7.886961869E0,1.920583470E0,8.209651365E0
1.432833379E1,-4.699264329E-1,-7.105637033E0,2.036455404E0,7.406622652E0
1.433828379E1,-1.889105861E0,-5.626553428E0,7.007045960E-1,5.976438017E0
1.434823379E1,-4.625484673E0,-3.704978855E0,-4.479564337E-1,5.943285434E0
1.435818379E1,-7.231048114E0,-2.528519066E0,-1.345164386E-1,7.661563820E0
1.436813379E1,-7.010088851E0,-2.134557064E0,-7.276334361E-1,7.363907250E0
1.437808379E1,-5.272042590E0,-2.379080606E0,-4.980880487E-1,5.805389678E0
1.438803379E1,-3.450679938E0,-3.228880430E0,3.499663818E-1,4.738706294E0
1.439798379E1,-2.632099568E0,-3.174237031E0,9.861036837E-1,4.239826569E0
1.440793379E1,-2.875448989E0,-2.259448328E0,1.379487981E0,3.908490850E0
1.441788379E1,-4.125755311E0,-1.689345387E0,1.540875810E0,4.716995122E0
1.442783379E1,-5.909760979E0,-1.228207648E0,1.463524164E0,6.210931640E0
1.443778379E1,-7.174805501E0,-5.264072835E-1,1.013796097E0,7.265171790E0
1.444773379E1,-7.456081717E0,-3.006386858E-1,6.729765147E-1,7.492425213E0
1.445768379E1,-7.001351942E0,-6.168485069E-1,4.646501613E-1,7.043815079E0
1.446763379E1,-6.501963472E0,-1.066887061E0,4.911574171E-1,6.607194004E0
1.447758379E1,-6.351376035E0,-1.291988491E0,9.037269402E-1,6.544152671E0
1.448753379E1,-6.703425195E0,-7.850027347E-1,1.337564614E0,6.880495457E0
1.449748379E1,-7.147428253E0,-1.799656034E-2,1.709797778E0,7.349113072E0
1.450743379E1,-7.604192274E0,6.050663674E-1,2.001118925E0,7.886337705E0
1.451738396E1,-7.913111202E0,9.554239279E-1,2.104816371E0,8.243810753E0
1.452733396E1,-7.825269651E0,9.526266199E-1,2.148401370E0,8.170555124E0
1.453728396E1,-7.476000842E0,7.102729797E-1,2.276746146E0,7.847206465E0
1.454723396E1,-7.188800812E0,5.006923985E-1,2.304636195E0,7.565771473E0
1.455718396E1,-7.096522393E0,3.849549508E-1,2.276683581E0,7.462714554E0
1.456713396E1,-7.412314723E0,4.568803811E-1,1.929108710E0,7.672848862E0
1.457708396E1,-7.823730079E0,3.523701721E-1,1.639357540E0,8.001400517E0
1.458703396E1,-8.011290046E0,5.757285476E-2,1.397587452E0,8.132486306E0
1.459698396E1,-8.048682990E0,-1.415143132E-1,1.123339005E0,8.127928069E0
1.460693396E1,-7.852538726E0,-3.442331868E-1,8.729507784E-1,7.908407171E0
1.461688396E1,-7.765480117E0,-5.062887686E-1,6.886990929E-1,7.812382236E0
1.462683396E1,-7.702350068E0,-6.908976460E-1,5.525864375E-1,7.752992190E0
1.463678396E1,-7.588890111E0,-7.087012482E-1,3.928293230E-1,7.632026300E0
1.464673396E1,-7.516202788E0,-7.206903791E-1,3.836106759E-1,7.560413754E0
1.465668396E1,-7.246646147E0,-1.002332046E0,4.909176081E-1,7.332090425E0
1.466663396E1,-6.695333233E0,-1.365335965E0,4.940762740E-1,6.850966411E0
1.467658396E1,-6.239207143E0,-1.775736828E0,6.397707617E-1,6.518454854E0
1.468653396E1,-5.904210802E0,-1.931425962E0,8.225769424E-1,6.266318239E0
1.469648396E1,-5.794470259E0,-1.998314016E0,9.131678545E-1,6.197017026E0
1.470643396E1,-5.635737065E0,-1.847611388E0,9.702986598E-1,6.009715434E0
1.471638396E1,-5.346641368E0,-1.816894210E0,1.211048409E0,5.775319622E0
1.472633396E1,-4.861912160E0,-2.063267226E0,1.596551975E0,5.517629900E0
1.473628396E1,-4.123979219E0,-2.535768444E0,1.789107656E0,5.161223925E0
1.474623396E1,-3.708854682E0,-3.053014895E0,1.785792285E0,5.124993374E0
1.475618396E1,-3.836039516E0,-3.309498916E0,1.627436821E0,5.321328110E0
1.476613396E1,-4.318450595E0,-3.332933387E0,1.304721973E0,5.608900064E0
1.477608396E1,-4.718300743E0,-3.492322054E0,1.075878471E0,5.967930103E0
1.478603396E1,-4.929534917E0,-3.894835609E0,6.830155993E-1,6.319538688E0
1.479598396E1,-5.029779582E0,-4.622156730E0,7.785168569E-1,6.875253012E0
1.480593396E1,-5.019392588E0,-5.246603109E0,9.400156376E-1,7.321528224E0
1.481588396E1,-4.969572557E0,-5.891091405E0,1.129846956E0,7.789618956E0
1.482583396E1,-5.204879717E0,-6.329636672E0,1.447588309E0,8.321693648E0
1.483578396E1,-5.394592629E0,-6.741271298E0,2.114142680E0,8.889092621E0
1.484573396E1,-5.290377120E0,-7.198165712E0,2.266404322E0,9.216195975E0
1.485568396E1,-4.761988800E0,-7.949563329E0,2.085962609E0,9.498596447E0
1.486563396E1,-3.799471030E0,-8.976378252E0,1.380815299E0,9.844693876E0
1.487558396E1,-1.953693913E0,-1.020378892E1,5.564058387E-1,1.040402882E1
1.488553396E1,1.072888058E0,-1.011386576E1,-4.371305332E-3,1.017061397E1
1.489548396E1,4.118352444E0,-9.197041061E0,-1.353688530E-1,1.007793212E1
1.490543396E1,6.623201396E0,-8.027206752E0,2.542954453E-1,1.040997172E1
1.491538396E1,9.068035111E0,-6.522795932E0,3.400986572E-1,1.117549975E1
1.492533396E1,1.046676862E1,-5.625697396E0,3.609954000E-2,1.188288768E1
1.493528396E1,9.774009803E0,-5.478165128E0,1.879883487E-2,1.120454882E1
1.494523396E1,7.851282744E0,-5.478075666E0,4.999373037E-2,9.573633223E0
1.495518396E1,5.695249441E0,-5.219879580E0,-2.998525277E-3,7.725478497E0
1.496513396E1,3.866560813E0,-5.144392025E0,3.433461642E-1,6.444606149E0
1.497508396E1,2.971684218E0,-5.320941685E0,8.463868046E-1,6.153023495E0
1.498503396E1,3.128618808E0,-5.391894139E0,9.269333696E-1,6.302379196E0
1.499498396E1,3.754912907E0,-4.989525595E0,3.393910710E-1,6.253792682E0
1.500493396E1,4.262938884E0,-4.294833106E0,-3.417603993E-1,6.060943780E0
1.501488296E1,4.504292650E0,-3.892352004E0,-5.261955778E-1,5.976281301E0
1.502483296E1,4.447385793E0,-3.407893815E0,-4.627884078E-1,5.622023991E0
1.503478396E1,3.758989002E0,-2.593751189E0,-5.182469094E-1,4.596316286E0
1.504473296E1,2.674660281E0,-2.251338240E0,-2.489253259E-1,3.504895905E0
1.505468296E1,1.492542726E0,-1.932590581E0,-4.691570124E-2,2.442292207E0
1.506463296E1,6.408203369E-1,-1.669899594E0,3.787943244E-2,1.789036112E0
1.507458296E1,1.945082134E-1,-1.336701857E0,1.513282708E-1,1.359229762E0
1.508453296E1,1.454500741E-1,-1.093176143E0,3.997612703E-1,1.173029785E0
1.509448296E1,6.409314340E-1,-9.212602548E-1,2.692081475E-1,1.154117233E0
1.510443296E1,1.335830914E0,-7.450313146E-1,8.799825668E-2,1.532076886E0
1.511438296E1,1.829820650E0,-6.140871593E-1,-2.068861842E-2,1.930226585E0
1.512433296E1,1.901591713E0,-6.500811571E-1,-1.121823406E-1,2.012769593E0
1.513428296E1,1.559529598E0,-6.344439483E-1,-3.619309545E-2,1.684031363E0
1.514423296E1,1.052678912E0,-4.486437008E-1,1.990859985E-1,1.161485814E0
1.515418296E1,6.587052155E-1,-2.853642967E-1,2.201617026E-1,7.508638479E-1
1.516413296E1,3.386210293E-1,-2.361672860E-1,2.099922252E-1,4.631802274E-1
1.517408296E1,1.321768945E-1,-2.146220505E-1,3.319592965E-1,4.168097054E-1
1.518403296E1,1.050235945E-1,-7.060483664E-2,4.334067339E-1,4.515045906E-1
1.519398296E1,1.470487028E-1,1.553611046E-1,3.550230539E-1,4.144897618E-1
1.520393296E1,1.961822712E-1,2.345005372E-1,2.830280417E-1,4.166327614E-1
1.521388296E1,2.697326428E-1,6.386738241E-2,4.590052593E-1,5.362094452E-1
1.522383296E1,3.170319396E-1,7.723791808E-2,6.951538342E-1,7.679282518E-1
1.523378296E1,4.169485760E-1,2.406023991E-1,5.261891824E-1,7.131694645E-1
1.524373296E1,3.227376527E-1,2.731979951E-1,3.622326708E-1,5.567847383E-1
1.525368296E1,6.580982745E-2,1.711053175E-1,3.036605269E-1,3.547078779E-1
1.526363296E1,-1.242071396E-1,1.303782910E-2,2.975706518E-1,3.227161157E-1
1.527358296E1,-2.745086485E-1,-5.213523656E-2,4.974618119E-1,5.705622975E-1
1.528353296E1,-3.027419293E-1,1.618214008E-1,6.111977577E-1,7.010003856E-1
1.529348296E1,-2.067353261E-1,2.471375397E-1,4.287342238E-1,5.363110042E-1
1.530343296E1,-1.767391098E-1,1.598950356E-1,2.113347459E-1,3.185365131E-1
1.531338296E1,-9.189367175E-2,-5.129703820E-2,-8.284218192E-2,1.339352834E-1
1.532333296E1,-1.115824163E-2,-3.633272696E-1,-1.561592495E-1,3.956221965E-1
1.533328296E1,1.827968252E-1,-3.508460954E-1,-6.462345023E-3,3.956632708E-1
1.534323296E1,4.361321211E-1,-7.491569638E-2,-1.494747126E-1,4.670827318E-1
1.535318296E1,3.472901112E-1,-1.754427820E-2,-2.534767985E-1,4.303123405E-1
1.536313296E1,1.123981029E-1,-1.269807664E-1,-3.972364426E-1,4.319192515E-1
1.537308296E1,-2.313170207E-1,-3.664678091E-1,-4.149757254E-1,6.000092264E-1
1.538303296E1,-5.542832994E-1,-3.279723725E-1,-1.319026510E-1,6.574147568E-1
1.539298296E1,-6.016586101E-1,-8.724805892E-2,-2.746552309E-2,6.085718214E-1
1.540293296E1,-5.578027385E-1,7.115155131E-2,2.014250675E-2,5.626830004E-1
1.541288296E1,-4.522002697E-1,5.905687809E-5,1.229318619E-2,4.523673395E-1
1.542283296E1,-4.220005703E-1,-1.330697644E-1,-2.654169956E-2,4.432792634E-1
1.543278296E1,-3.424223042E-1,-1.567085955E-1,-4.458268046E-2,3.792073755E-1
1.544273296E1,-1.941222972E-1,-9.352241367E-2,-2.440499175E-1,3.255614694E-1
1.545268296E1,-2.134531921E-1,-9.648636729E-2,-3.898128176E-1,4.547811749E-1
1.546263296E1,-2.513016343E-1,-1.908806008E-1,-4.950638688E-1,5.870912615E-1
1.547258296E1,-3.223640156E-1,-1.602122471E-1,-4.364934790E-1,5.657853656E-1
1.548253296E1,-3.183428854E-1,-9.109435737E-2,-3.854741836E-1,5.081640688E-1
1.549248296E1,-3.202069777E-1,-7.856903672E-3,-2.427635117E-1,4.019059121E-1
1.550243296E1,-3.474725443E-1,9.093355894E-2,-1.198433626E-1,3.786403475E-1
1.551238296E1,-3.439753246E-1,6.007107764E-2,-3.392320633E-2,3.508252304E-1
1.552233217E1,-3.116139096E-1,-2.387155026E-2,1.897070646E-2,3.131021675E-1
1.553228217E1,-1.848392576E-1,-7.256686985E-3,1.129787405E-1,2.167542536E-1
1.554223217E1,-2.075293779E-2,1.500804842E-2,3.221909380E-1,3.232072500E-1
1.555218217E1,2.018265885E-1,-2.574675232E-2,3.321417296E-1,3.895060919E-1
1.556213217E1,3.811197621E-1,-9.748974949E-2,1.369429600E-1,4.165451939E-1
1.557208217E1,4.412057501E-1,-9.197962582E-2,-8.120963931E-2,4.579495289E-1
1.558203217E1,3.214962888E-1,-6.321951091E-2,-2.106915522E-1,3.895478153E-1
1.559198217E1,8.731939495E-2,-8.823916197E-2,-3.032354343E-1,3.276622576E-1
1.560193217E1,-1.959711868E-1,-7.889677316E-2,-2.702477825E-1,3.430208023E-1
1.561188217E1,-4.627819759E-1,-4.441545010E-2,4.185446100E-3,4.649273141E-1
1.562183217E1,-5.754280007E-1,4.346059978E-2,2.046455312E-1,6.122793489E-1
1.563178217E1,-4.932763749E-1,5.609000087E-2,2.360556042E-1,5.497180355E-1
1.564173217E1,-2.261059821E-1,2.358971447E-2,2.026890528E-1,3.045705861E-1
1.565168217E1,1.317395228E-1,2.120141923E-2,1.344064470E-1,1.893934926E-1
1.566163217E1,4.566412300E-1,5.888438523E-3,2.156687478E-2,4.571881634E-1
1.567158217E1,6.225776088E-1,-3.182259411E-2,3.541658521E-2,6.243956206E-1
1.568153217E1,6.035677260E-1,-3.459095836E-2,7.041800897E-2,6.086454060E-1
1.569148217E1,4.634684390E-1,-5.114413351E-2,7.368193388E-2,4.720675203E-1
1.570143217E1,2.432909489E-1,-1.647216198E-1,2.293863614E-2,2.947030350E-1
1.571138217E1,3.999846339E-2,-1.877634501E-1,-9.060144623E-2,2.122819171E-1
1.572133217E1,-5.516497135E-2,-1.836320999E-1,-2.059050214E-1,2.813552915E-1
1.573128217E1,-6.237400353E-2,-2.211507592E-1,-2.395288503E-1,3.319220462E-1
1.574123217E1,1.881692469E-2,-2.001779661E-1,-2.193126869E-1,2.975287371E-1
1.575118217E1,1.245375073E-1,-1.129892564E-1,-2.234033990E-1,2.796162396E-1
1.576113217E1,1.463739341E-1,-1.025461292E-1,-1.306069171E-1,2.213576383E-1
1.577108217E1,1.202982759E-1,-7.090041339E-2,-7.613307755E-2,1.590433567E-1
1.578103217E1,1.581379473E-2,-2.580873281E-2,-8.772812446E-2,9.280296662E-2
1.579098217E1,-1.204596591E-1,-7.567583442E-2,-3.080195348E-2,1.455545318E-1
1.580093217E1,-1.226927108E-1,-1.762783492E-1,-5.847215652E-2,2.225905450E-1
1.581088217E1,-7.194589555E-2,-2.089221847E-1,-1.370961571E-1,2.600385499E-1
1.582083217E1,4.497678280E-2,-2.406316352E-1,-1.957402217E-1,3.134337717E-1
1.583078217E1,2.004010373E-1,-2.942041174E-1,-1.864513350E-1,4.018466607E-1
1.584073217E1,4.527423066E-1,-4.138170996E-1,-1.926903141E-1,6.429228144E-1
1.585068217E1,7.306978887E-1,-5.553153330E-1,-2.024493170E-1,9.398299046E-1
1.586063117E1,9.669365108E-1,-6.652593595E-1,-1.801246476E-1,1.187426259E0
1.587058217E1,1.245331219E0,-8.164300570E-1,-1.829780889E-1,1.500296259E0
1.588053117E1,1.503142558E0,-9.531683645E-1,-1.299952892E-1,1.784619359E0
1.589048117E1,1.712048956E0,-1.178576481E0,-1.854725111E-1,2.086756862E0
1.590043117E1,2.073489913E0,-1.429736613E0,-1.014597074E-1,2.520674766E0
1.591038117E1,2.706627009E0,-1.576455533E0,1.788861891E-1,3.137362281E0
1.592033117E1,3.517191432E0,-1.742479328E0,2.507087266E-1,3.933157083E0
1.593028117E1,3.943123085E0,-1.868695278E0,3.404132009E-1,4.376770825E0
