"Time (s)","Linear Acceleration x (m/s^2)","Linear Acceleration y (m/s^2)","Linear Acceleration z (m/s^2)","Absolute acceleration (m/s^2)"
5.491124990E-3,-5.404022288E-2,1.605378639E-2,1.430544698E-1,1.537616697E-1
1.544112500E-2,-1.850097405E-2,-7.928888379E-3,5.473052323E-2,5.831452207E-2
2.539112500E-2,4.259541286E-2,-4.004787693E-2,-1.584186137E-1,1.688628402E-1
3.534112498E-2,-2.098475477E-2,-3.438007487E-3,9.380571127E-2,9.618571253E-2
4.529212500E-2,-8.664098089E-3,5.278482568E-4,2.641187310E-3,9.073097039E-3
5.524212500E-2,2.664286553E-2,-2.187481748E-2,-8.342514932E-2,9.026685694E-2
6.519212498E-2,-2.420972718E-2,2.212113601E-3,4.365882039E-2,4.997096091E-2
7.514212499E-2,-1.036562414E-2,1.246768218E-2,-9.781807065E-3,1.893602419E-2
8.509212499E-2,2.508556014E-3,4.343343764E-3,-2.325145304E-2,2.378628926E-2
9.504212500E-2,-2.126734887E-2,1.515698796E-2,1.342169881E-2,2.936284065E-2
1.049921250E-1,-6.741910453E-3,1.295724259E-2,-1.442098796E-2,2.052579806E-2
1.149421250E-1,-2.702861731E-3,1.569529954E-2,-1.741359293E-2,2.359832850E-2
1.248931250E-1,-2.274201209E-2,1.752227806E-3,-8.881920576E-3,2.447770270E-2
1.348431250E-1,-1.190775875E-2,-1.187401392E-2,-1.007943034E-2,1.960565839E-2
1.447931250E-1,-1.418637300E-2,-5.759025479E-3,-1.591729045E-2,2.208573496E-2
1.547431250E-1,-2.100990693E-2,-8.619238981E-3,-1.442098796E-2,2.690115915E-2
1.646931250E-1,-1.184039014E-2,-1.454837275E-2,-8.283165693E-3,2.050514137E-2
1.746431250E-1,-8.967431537E-3,1.616876184E-3,-6.487485766E-3,1.118555267E-2
1.845931250E-1,5.597329410E-3,7.195380300E-3,-1.037939250E-2,1.381431804E-2
1.945431250E-1,-5.353276678E-3,1.430420810E-3,-5.289976001E-3,7.660778092E-3
2.044941250E-1,-4.950609086E-3,-9.268997116E-3,-9.332156181E-3,1.405389543E-2
2.144441250E-1,3.014488632E-3,-5.370012049E-3,-7.835268974E-3,9.965721801E-3
2.243941250E-1,-1.147385880E-3,-7.943858164E-3,-1.951098919E-2,2.109739501E-2
2.343441250E-1,-4.093676792E-3,-1.130375964E-2,-8.883674741E-3,1.494833933E-2
2.442941250E-1,-1.180169574E-2,4.258554569E-4,-1.023028851E-2,1.562434568E-2
2.542441250E-1,-2.034607208E-3,-3.100104660E-3,-7.535891533E-3,8.398805665E-3
2.641941250E-1,-1.596769528E-3,-4.368347463E-3,-8.583712578E-3,9.762799501E-3
2.741441250E-1,-1.167693762E-2,-6.893095239E-3,-1.966009319E-2,2.388273222E-2
2.840951250E-1,-7.622137964E-3,6.964122921E-3,-1.698031425E-3,1.046323592E-2
2.940451250E-1,-1.223583551E-2,2.542853588E-3,-1.262530804E-2,1.776457649E-2
3.039951250E-1,-1.619524104E-2,5.317215803E-3,-1.442157269E-2,2.232801771E-2
3.139451250E-1,-1.478518042E-2,6.639536214E-4,-3.044645190E-3,1.511000525E-2
3.238951250E-1,-1.448700668E-2,4.332220349E-3,-2.745267749E-3,1.536808351E-2
3.338451250E-1,-1.359794896E-2,5.749939454E-3,-5.588768721E-3,1.578608107E-2
3.437951250E-1,-3.108002970E-3,5.210193484E-3,-2.744683027E-3,6.658759909E-3
3.537461250E-1,-6.033072600E-3,-3.726891917E-4,-3.493126631E-3,6.981317632E-3
3.636961250E-1,-4.164259080E-3,-2.404466439E-3,-2.744098306E-3,5.536477946E-3
3.736461250E-1,1.282225871E-3,2.683024595E-3,-3.193749189E-3,4.363800871E-3
3.835961250E-1,-4.221655440E-3,-7.018291892E-3,-1.172600627E-2,1.430307725E-2
3.935461250E-1,-1.237069834E-3,-1.072392827E-2,-2.534767985E-2,2.755064161E-2
4.034961250E-1,-7.164216468E-3,-9.436933261E-3,-1.262413859E-2,1.731330651E-2
4.134461250E-1,-9.864145454E-3,-9.422395164E-3,-5.888730884E-3,1.485799608E-2
4.233961250E-1,-9.476995824E-3,-8.514354550E-3,-1.037997723E-2,1.643324711E-2
4.333471250E-1,-5.756586094E-3,-3.286607999E-3,-8.583712578E-3,1.084528456E-2
4.432971250E-1,-1.146548312E-2,-3.896004357E-3,1.296327710E-3,1.217853105E-2
4.532471250E-1,-1.484447941E-2,6.573956036E-3,-1.217565715E-2,2.029340026E-2
4.631971250E-1,-1.281997007E-2,2.322107493E-3,-1.621725261E-2,2.080247817E-2
4.731471250E-1,-1.553015452E-2,1.140125968E-2,-3.044060469E-3,1.950488979E-2
4.830971250E-1,-1.486309685E-2,2.866069854E-3,-9.031024575E-3,1.762627043E-2
4.930471250E-1,-1.945612129E-2,7.554579782E-4,-1.337199748E-2,2.362036598E-2
5.029981250E-1,-1.924956155E-2,-3.504387089E-3,-1.232359171E-2,2.312352182E-2
5.129481250E-1,-9.552685290E-3,-1.629270910E-2,-1.771297038E-2,2.589315519E-2
5.228981250E-1,-3.715699981E-3,-2.256497394E-2,-8.133476973E-3,2.427216354E-2
5.328481250E-1,-4.832541011E-3,-8.214120583E-3,-5.738457441E-3,1.112452801E-2
5.427981250E-1,1.681691199E-3,-7.911942874E-3,-2.444720864E-3,8.450064226E-3
5.527481250E-1,3.543912896E-3,-6.966345320E-3,2.496761084E-4,7.819950376E-3
5.626981250E-1,5.169032284E-3,-1.415951236E-3,-6.785693765E-3,8.646933128E-3
5.726491250E-1,7.260076543E-3,8.060181211E-3,-1.606639445E-2,1.938567159E-2
5.825991250E-1,-1.705249082E-3,2.105941640E-2,-4.091296792E-3,2.152081790E-2
5.925492083E-1,-3.520115186E-4,2.039357614E-2,-2.040736735E-2,2.885277287E-2
6.024992083E-1,1.747792144E-3,9.933128895E-3,-1.442040324E-2,1.759743892E-2
6.124492083E-1,-1.102691454E-2,3.422868680E-3,-1.142721355E-2,1.624469402E-2
6.223992083E-1,-2.015156080E-2,-2.287072164E-3,-1.412161052E-2,2.471307317E-2
6.323492083E-1,-2.246167236E-2,-4.863414767E-3,-1.847720146E-3,2.305631363E-2
6.423002083E-1,-1.764202035E-2,-1.245172567E-2,-8.883674741E-3,2.334964735E-2
6.522502083E-1,-1.956358901E-2,-2.097544034E-2,-1.142779827E-2,3.087551919E-2
6.622002083E-1,-1.637974125E-2,-7.062239656E-3,-4.094220400E-3,1.830119650E-2
6.721502083E-1,-1.242349459E-2,-2.081856365E-2,-6.340135932E-3,2.505899308E-2
6.821002083E-1,-1.542259088E-2,-1.428224678E-2,-3.645154238E-3,2.133368304E-2
6.920502083E-1,-2.075031568E-2,-2.150062994E-2,-6.513798237E-4,2.988773970E-2
7.020002083E-1,-1.095631169E-2,-1.690357412E-2,-1.083138227E-2,2.287117019E-2
7.119512083E-1,-1.802336160E-2,-1.555316651E-2,-4.843248725E-3,2.429402416E-2
7.219012083E-1,-2.910341727E-2,-1.006188641E-2,-2.535060346E-2,3.988613231E-2
7.318512083E-1,-1.648288522E-2,1.840060979E-2,-1.621959150E-2,2.955237883E-2
7.418012083E-1,-9.936929585E-3,4.146143675E-2,-5.143210888E-3,4.294468448E-2
7.517512083E-1,-2.080738542E-3,5.571547757E-2,-2.624873579E-2,6.162418392E-2
7.617012083E-1,8.628267904E-3,5.012981518E-2,-1.247737348E-2,5.237490073E-2
7.716522083E-1,1.187682789E-2,5.704836865E-2,-1.442332685E-2,6.003005717E-2
7.816022083E-1,2.012205063E-2,4.202390235E-2,-2.714745283E-2,5.392485035E-2
7.915522083E-1,2.895738535E-2,1.135252222E-2,-1.038173139E-2,3.279009414E-2
8.015022083E-1,1.898525141E-2,-1.816103155E-2,-1.382398725E-2,2.968779988E-2
8.114522083E-1,9.510128524E-3,-4.386512660E-2,-5.890485048E-3,4.526908096E-2
8.214022083E-1,-6.387895807E-3,-5.475610480E-2,-5.741381049E-3,5.542562297E-2
8.313522083E-1,-1.028008349E-2,-5.281655596E-2,-1.831523359E-2,5.683939198E-2
8.413032083E-1,-1.795885950E-2,-4.739136766E-2,9.951961040E-4,5.068976996E-2
8.512532083E-1,-2.330560831E-2,-3.777676584E-2,-1.382398725E-2,4.649019294E-2
8.612032083E-1,-1.709728369E-2,-1.993686977E-2,-1.831347942E-2,3.201842305E-2
8.711532083E-1,-2.914964225E-2,-2.777941350E-3,-7.684995532E-3,3.027338366E-2
8.811032083E-1,-3.215514308E-2,1.996652612E-2,-8.883090019E-3,3.887833175E-2
8.910532083E-1,-2.219995236E-2,2.570296444E-2,2.343564034E-3,3.404368603E-2
9.010032083E-1,-1.774607338E-2,2.932556122E-2,-1.262530804E-2,3.652820916E-2
9.109542083E-1,-9.987704430E-3,2.796876508E-2,-8.883090019E-3,3.099863461E-2
9.209042083E-1,-9.386386822E-3,2.959543306E-2,1.744809151E-3,3.109723902E-2
9.308542083E-1,4.154768775E-3,2.290209561E-2,-2.714452922E-2,3.575742655E-2
9.408042083E-1,1.385001649E-2,2.462050093E-2,-2.220421672E-2,3.593075650E-2
9.507542083E-1,1.683061411E-2,2.720701677E-2,-1.367195964E-2,3.479100190E-2
9.607042083E-1,1.872053700E-2,1.962390212E-2,-1.666514933E-2,3.183211024E-2
9.706552083E-1,1.657747764E-2,2.298570166E-3,-4.540362954E-3,1.734102320E-2
9.806052083E-1,-2.305577688E-3,-1.239354359E-2,-1.980861247E-2,2.347970909E-2
9.905552083E-1,-4.538748118E-3,-2.686043449E-2,-7.384448647E-3,2.822433803E-2
1.000505208E0,-9.689124129E-3,-3.802144669E-2,-9.779468179E-3,4.043695751E-2
1.010455208E0,-2.247611225E-2,-3.939263703E-2,-2.175398111E-2,5.030100564E-2
1.020405208E0,-2.686247416E-2,-3.413966980E-2,-6.785109043E-3,4.396757074E-2
1.030356208E0,-2.851173158E-2,-3.838287314E-2,-9.928572178E-3,4.883380319E-2
1.040306208E0,-3.018867649E-2,-1.892933513E-2,-1.501740396E-2,3.866779459E-2
1.050256208E0,-1.809194076E-2,-9.033153327E-3,-7.969754934E-4,2.023737506E-2
1.060206208E0,-1.212067962E-2,1.241502069E-2,-1.202304482E-2,2.110917384E-2
1.070156208E0,-1.333215418E-3,2.816463995E-2,-1.172366738E-2,3.053635184E-2
1.080106208E0,3.252102574E-3,2.647278236E-2,-1.920810342E-2,3.286845926E-2
1.090057208E0,6.363666407E-3,2.057869534E-2,-8.131722808E-3,2.302398462E-2
1.100007208E0,6.873938756E-3,1.204721484E-2,-6.036665440E-3,1.512705355E-2
1.109957208E0,1.269595428E-2,2.269909673E-2,-1.561674356E-2,3.033675868E-2
1.119907208E0,7.991851014E-3,8.369051241E-3,-1.741242349E-2,2.090701301E-2
1.129857208E0,5.636261359E-3,1.153240176E-2,-1.786148965E-2,2.199537554E-2
1.139807208E0,1.404423541E-3,7.792506642E-3,-4.088957906E-3,8.911517379E-3
1.149758208E0,-3.711878734E-3,-7.613965566E-3,-2.891448140E-3,8.950474162E-3
1.159708208E0,-3.428030675E-3,-6.202660126E-3,-1.321938515E-2,1.499921767E-2
1.169658208E0,-1.014799580E-2,-1.395594931E-2,-1.890755653E-2,2.559777400E-2
1.179608208E0,-1.938437641E-2,-2.973450086E-2,-1.771004677E-2,3.966787550E-2
1.189558208E0,-1.893435094E-2,-3.201546543E-2,-1.217097938E-2,3.913607557E-2
1.199508208E0,-1.394228144E-2,-3.977342782E-2,-1.725922644E-2,4.554331641E-2
1.209458208E0,-2.507624114E-2,-2.168183424E-2,-1.291825354E-2,3.557809832E-2
1.219409208E0,-2.488989312E-2,-2.081269360E-2,-5.882883668E-3,3.297397935E-2
1.229359208E0,-7.203351699E-3,-6.629993375E-3,-9.475412965E-3,1.362455646E-2
1.239309208E0,-1.755197095E-3,1.242650499E-2,-1.516358435E-2,1.968331866E-2
1.249259208E0,3.975097085E-3,1.785049186E-2,-1.995362341E-2,2.706637294E-2
1.259209208E0,1.446427792E-2,2.749061130E-2,-1.486479163E-2,3.443705962E-2
1.269160208E0,2.067631186E-2,2.617830653E-2,-6.781600714E-3,3.404120611E-2
1.279110208E0,5.269832800E-3,2.639601481E-2,-7.979110479E-3,2.807466723E-2
1.289060208E0,3.907746754E-3,2.290434313E-2,-8.877242804E-3,2.487337651E-2
1.299010208E0,2.750288132E-3,1.061715034E-2,-1.157105505E-2,1.594293829E-2
1.308960208E0,-3.500686898E-3,1.180857078E-2,-1.067292273E-2,1.629749773E-2
1.318910208E0,-1.780160137E-2,-7.367311281E-3,-7.079223990E-3,2.052534285E-2
1.328861208E0,-1.959657324E-2,-1.656988540E-2,-1.620965123E-2,3.035357603E-2
1.338811208E0,-2.225950488E-2,-2.287896485E-2,-1.516124547E-2,3.533830718E-2
1.348761208E0,-1.667151960E-2,-2.278863450E-2,-5.580582619E-3,2.878201401E-2
1.358711208E0,-1.066862868E-2,-2.108481525E-2,-7.077469826E-3,2.466738030E-2
1.368661208E0,-8.897411129E-3,-2.873609564E-2,-1.426252842E-2,3.329184336E-2
1.378611208E0,-1.036845638E-2,-2.347548363E-2,-9.473074079E-3,2.735584676E-2
1.388562208E0,-9.372376346E-3,-2.079602218E-2,-1.037120640E-2,2.505749188E-2
1.398512208E0,-6.953659602E-3,-1.126427495E-2,-3.634629250E-3,1.372762914E-2
1.408462208E0,-1.720652841E-3,-6.431297679E-4,-1.351408482E-2,1.363835586E-2
1.418412208E0,7.023383081E-3,1.541306631E-2,-1.486069858E-2,2.253288453E-2
1.428362208E0,9.070408770E-3,2.999230369E-2,4.000080228E-3,3.158815027E-2
1.438312208E0,-3.754531431E-3,2.944221317E-2,-1.141844273E-2,3.180127760E-2
1.448263208E0,-3.340678755E-4,2.665467645E-2,-9.173111916E-3,2.819094465E-2
1.458213208E0,1.629089098E-4,2.667109890E-2,-1.516007602E-2,3.067901499E-2
1.468163208E0,-3.760849165E-3,1.609075861E-2,-9.470735192E-3,1.904603172E-2
1.478113208E0,-4.474168362E-3,1.831119535E-2,-1.411167026E-2,2.354691689E-2
1.488063208E0,-1.047274924E-2,-9.644191931E-3,-1.306267977E-2,1.932155577E-2
1.498013208E0,-1.965182486E-2,-1.517010994E-2,-1.201427400E-2,2.758023270E-2
1.507964208E0,-1.653777824E-2,-2.347802808E-2,-1.246334016E-2,3.130576241E-2
1.517914208E0,-1.730916989E-2,-2.765731862E-2,-2.428874910E-2,4.067527465E-2
1.527864208E0,-1.111725630E-2,-1.644983932E-2,-9.919216633E-3,2.219417626E-2
1.537814208E0,-5.989965373E-3,-2.294122856E-2,-2.285676599E-3,2.382024287E-2
1.547764208E0,-1.890863918E-3,-2.399044517E-2,-1.411050081E-2,2.789664960E-2
1.557714208E0,3.834980896E-3,-6.981363071E-3,-1.231482089E-2,1.466633295E-2
1.567665208E0,1.324899124E-3,1.735944680E-3,-7.075130939E-3,7.404481037E-3
1.577615208E0,2.085199328E-3,4.660863562E-3,-1.351233065E-2,1.444488785E-2
1.587565208E0,1.143274556E-3,1.576185501E-2,-7.375093102E-3,1.743947099E-2
1.597515500E0,3.426749313E-3,8.982986044E-3,-1.536063552E-3,9.736330949E-3
1.607465500E0,3.074984474E-3,1.616392875E-2,-7.223065495E-3,1.796944065E-2
1.617416500E0,-3.235157069E-3,2.274539252E-2,-1.111438751E-2,2.552153467E-2
1.627366500E0,-7.666028626E-3,2.523783899E-2,-8.719367981E-3,2.778027880E-2
1.637316500E0,-3.652977173E-3,1.457796058E-2,-1.276096344E-2,1.971556149E-2
1.647266500E0,-1.363641496E-2,7.251070461E-3,-5.426800847E-3,1.637009479E-2
1.657216500E0,-1.556879411E-2,-1.279450042E-2,-2.283337712E-3,2.028053802E-2
1.667166500E0,-1.524152362E-2,-1.606474763E-2,-1.201310456E-2,2.519315066E-2
1.677117500E0,-1.359581564E-2,-1.480525282E-2,-2.084473908E-2,2.895763908E-2
1.687067500E0,-1.357274198E-2,-2.802940938E-2,-1.815034211E-2,3.604583241E-2
1.697017500E0,-1.012700978E-2,-2.386422297E-2,-1.111497223E-2,2.820638355E-2
1.706967500E0,-6.864128681E-3,-1.706479967E-2,-3.180885315E-3,1.866659266E-2
1.716917500E0,-1.763097688E-3,-3.074024251E-2,-1.515598297E-2,3.431872438E-2
1.726868500E0,-9.468878245E-3,-1.938317499E-2,-1.859882355E-2,2.848303645E-2
1.736818500E0,-2.596394441E-3,-9.611002130E-3,-1.500687897E-2,1.800886011E-2
1.746768500E0,5.944466726E-3,-4.223037302E-4,-9.169018865E-3,1.093553529E-2
1.756718500E0,6.071657371E-3,3.787817163E-3,-9.468396306E-3,1.186857661E-2
1.766668500E0,-2.936764061E-3,1.190058220E-2,-1.006773591E-2,1.586214822E-2
1.776618500E0,-5.464302970E-3,5.882716931E-3,-6.923688054E-3,1.060200083E-2
1.786569500E0,-6.186356444E-3,1.571551811E-2,-1.635407746E-2,2.350966535E-2
1.796519500E0,-9.854273710E-3,2.242046320E-2,-8.419990540E-3,2.589749256E-2
1.806469500E0,-7.788678543E-3,1.943907300E-2,-1.141376495E-2,2.384984493E-2
1.816419500E0,-1.561567005E-2,2.629906295E-3,-1.680255890E-2,2.308877528E-2
1.826369500E0,-1.784689902E-2,-8.043866109E-3,-1.695166290E-2,2.589545253E-2
1.836320500E0,-3.905972033E-3,2.297640550E-3,-1.695166290E-2,1.754692693E-2
1.846270500E0,-4.473754945E-3,-1.276097943E-2,-1.650259674E-2,2.133524732E-2
1.856220500E0,-5.444538924E-3,-1.055104483E-2,-1.829886138E-2,2.181320424E-2
1.866170500E0,5.484407342E-3,-1.330953734E-2,-2.578329742E-2,2.952966193E-2
1.876120500E0,-1.996997735E-3,-1.575853398E-2,-9.017575979E-3,1.826570748E-2
1.886070500E0,-5.801687313E-3,-2.287478272E-2,-2.431272268E-3,2.372396141E-2
1.896021500E0,-5.424320349E-3,-1.963559427E-2,-2.009512603E-2,2.861457502E-2
1.905971500E0,5.599531252E-4,-7.771664516E-3,-1.650259674E-2,1.824960317E-2
1.915921500E0,3.133764979E-3,-6.370276501E-3,-2.009512603E-2,2.131232028E-2
1.925871500E0,3.920035043E-3,5.961147279E-3,-2.353796661E-2,2.459548381E-2
1.935821500E0,-6.030429932E-3,1.184382538E-2,-1.695166290E-2,2.154068615E-2
1.945772500E0,-1.271542368E-2,1.322636983E-2,-5.276527405E-3,1.909085120E-2
1.955722500E0,-1.119867421E-2,1.057725223E-2,-1.485777497E-2,2.140191688E-2
1.965672500E0,-3.854626170E-3,1.587521791E-2,-1.261302888E-2,2.063902091E-2
1.975622500E0,-1.244673042E-2,1.150920933E-2,-1.171489656E-2,2.060635336E-2
1.985572500E0,-1.677786583E-2,-1.353518504E-3,-1.021859407E-2,1.969132954E-2
1.995522500E0,-8.833598820E-3,-6.426044321E-3,-1.994836092E-2,2.274343020E-2
2.005473500E0,-1.919371835E-2,-1.588341314E-4,-5.727932453E-3,2.003080784E-2
2.015423500E0,-3.666802640E-3,6.660915096E-4,-2.578563631E-2,2.605356327E-2
2.025373500E0,-3.021653756E-3,-1.299767746E-2,-2.339061677E-2,2.692936991E-2
2.035323500E0,-4.194031914E-3,-2.501199714E-2,-2.189314485E-2,3.350372660E-2
2.045273500E0,3.397691392E-3,-1.855524580E-2,-4.978904128E-3,1.950976524E-2
2.055224500E0,4.062161213E-3,-2.037251018E-2,-8.121197820E-3,2.230457753E-2
2.065174500E0,-3.008700802E-3,-1.843778986E-2,-1.919816315E-2,2.678756883E-2
2.075124500E0,-7.635808114E-3,-1.118518222E-2,-2.264158845E-2,2.638286175E-2
2.085074500E0,-2.380065734E-3,-1.004605553E-2,-5.426216125E-3,1.166326567E-2
2.095024500E0,-4.371435523E-3,8.312070582E-3,-7.221896052E-3,1.184718315E-2
2.104975500E0,-8.110410164E-3,1.320101667E-2,-2.009512603E-2,2.537439032E-2
2.114925500E0,-1.108252704E-2,9.269846790E-3,-1.934609771E-2,2.414588912E-2
2.124875500E0,-5.060383708E-3,1.207041641E-2,-1.201135039E-2,1.776443002E-2
2.134825500E0,-8.216103155E-3,7.384496613E-3,-9.915708303E-3,1.484440677E-2
2.144775500E0,-1.121281945E-2,1.380351057E-2,-1.844855011E-2,2.562446536E-2
2.154725500E0,-5.245950578E-3,1.138264909E-2,-1.575473785E-2,2.013197612E-2
2.164676500E0,-8.552073659E-3,-2.284870322E-3,-1.425785065E-2,1.678227938E-2
2.174626500E0,1.470378307E-3,-6.401504287E-3,-1.545594513E-2,1.679367469E-2
2.184576500E0,-3.005249575E-3,-2.030176115E-2,-1.740189850E-2,2.690760306E-2
2.194526500E0,-4.688651541E-3,-1.228640707E-2,-9.618669748E-3,1.629288371E-2
2.204476500E0,2.137541045E-3,-2.954389762E-2,-9.169603586E-3,3.100794412E-2
2.214427500E0,-1.754824792E-3,-1.616822736E-2,-1.066649079E-2,1.944903627E-2
2.224377500E0,-1.730095181E-3,-6.919364312E-3,-7.673301101E-3,1.047618163E-2
2.234327500E0,-8.923856076E-5,-1.438840801E-2,-1.111614168E-2,1.818248757E-2
2.244277500E0,-4.977732401E-3,-6.630393087E-3,-1.291182160E-2,1.534454527E-2
2.254227500E0,-1.817899346E-3,-9.304687972E-3,-6.026140451E-3,1.123371466E-2
2.264178500E0,-8.300357878E-3,-4.944848665E-4,-2.054594636E-2,2.216475509E-2
2.274128500E0,-3.264667236E-3,8.427829463E-3,-2.264158845E-2,2.437884101E-2
2.284078500E0,-7.467602449E-3,1.102116554E-2,-1.590501130E-2,2.074127673E-2
2.294028500E0,-1.052363144E-2,5.832074562E-3,-2.383851349E-2,2.670270844E-2
2.303978500E0,-1.012706231E-2,1.345807260E-2,-1.276096344E-2,2.113100322E-2
2.313929500E0,-4.565958227E-3,8.956374361E-3,-1.740131378E-2,2.009652551E-2
2.323879500E0,-8.043450408E-3,7.432183397E-3,-2.713108063E-2,2.925799003E-2
2.333829500E0,-4.967963439E-3,1.374559344E-3,-1.036594391E-2,1.157682458E-2
2.343779500E0,-4.945878780E-3,-9.505039619E-3,-4.228121638E-3,1.151887615E-2
2.353729500E0,-4.596854823E-3,-1.214315942E-2,-1.216103911E-2,1.778983607E-2
2.363679500E0,6.003487059E-3,-2.429782142E-2,-1.754983306E-2,3.056832712E-2
2.373630500E0,3.111913295E-3,-2.214779337E-2,-8.118858933E-3,2.379337357E-2
2.383580500E0,-1.612776280E-3,-1.559122367E-2,-3.479093313E-3,1.605588344E-2
2.393530500E0,-1.114087814E-2,-7.635097769E-3,-2.281583548E-3,1.369742703E-2
2.403480500E0,-4.018597172E-3,-2.381486425E-3,-1.964489043E-2,2.019263036E-2
2.413430500E0,-1.749737714E-2,-1.038598889E-2,-1.575298369E-2,2.573292574E-2
2.423381500E0,-1.019020310E-2,-1.617600233E-4,-1.350706816E-2,1.692061748E-2
2.433331500E0,-6.967713477E-3,5.759660450E-3,-1.470399320E-2,1.726065282E-2
2.443281500E0,5.885131191E-5,9.507127258E-3,-1.275862455E-2,1.591136175E-2
2.453231500E0,-1.491482644E-2,7.019168974E-3,-1.171138823E-2,2.022071698E-2
2.463181500E0,-1.155235767E-2,3.047374652E-3,-1.650142729E-2,2.037254434E-2
2.473132500E0,-7.076668118E-3,1.162755378E-3,-1.425609648E-2,1.595830563E-2
2.483082500E0,-8.918589014E-3,1.212313500E-2,-1.635115385E-2,2.222322804E-2
2.493032500E0,-2.068244687E-3,3.723963741E-3,-2.488282621E-2,2.524481298E-2
2.502982500E0,3.861702215E-3,-3.039725306E-3,-2.129555941E-3,5.356088352E-3
2.512932500E0,-5.116480433E-3,-6.974563398E-3,-6.919010282E-3,1.107680504E-2
2.522883500E0,-5.679827684E-3,-2.828492357E-3,-1.694815457E-2,1.809698193E-2
2.532833500E0,-7.939982100E-3,-6.206504214E-3,-1.095943630E-2,1.488869552E-2
2.542783500E0,-4.634957656E-3,-1.061841343E-2,-1.395379543E-2,1.813675669E-2
2.552733500E0,-1.262493802E-3,-3.518342748E-3,-1.964255154E-2,1.999506082E-2
2.562683500E0,-1.106809629E-2,-1.159572985E-2,-1.200784206E-2,2.002877873E-2
2.572634500E0,-8.000619553E-3,-8.474508973E-3,-6.769321561E-3,1.347779396E-2
2.582584500E0,1.186107695E-3,-2.136252830E-3,-6.919010282E-3,7.337787875E-3
2.592534583E0,-2.072266932E-3,-1.843880627E-3,-1.530099392E-2,1.555038909E-2
2.602484583E0,-1.015925397E-2,-4.454084546E-3,-2.143764675E-2,2.413756426E-2
2.612434583E0,-5.849632197E-3,4.100451339E-4,-1.754574001E-2,1.849971152E-2
2.622385583E0,-7.448274661E-3,2.537698445E-3,-1.215694606E-2,1.448129989E-2
2.632335583E0,-7.502046204E-3,2.104780648E-3,-7.815388441E-3,1.103590029E-2
2.642285583E0,3.125827841E-3,5.671965920E-3,-1.230605006E-2,1.390614487E-2
2.652235583E0,-7.993801609E-3,-3.344881441E-4,-2.038924098E-2,2.190282845E-2
2.662185583E0,-9.326902824E-3,-1.380564161E-3,-1.230663478E-2,1.550323622E-2
2.672136583E0,-4.930187229E-3,2.409178473E-3,-1.694756985E-2,1.781378710E-2
2.682086583E0,-8.392675363E-3,1.233936092E-3,-7.367491722E-3,1.123563671E-2
2.692036583E0,-1.294713102E-2,1.923987481E-3,-5.721500516E-3,1.428514955E-2
2.701986583E0,1.552588788E-3,-8.953704285E-3,-7.217803001E-3,1.160500032E-2
2.711936583E0,-3.564124620E-3,-1.189220881E-2,-9.761926532E-3,1.579312585E-2
2.721887583E0,-5.445877388E-3,-2.428895923E-2,-2.368239284E-2,3.435792269E-2
2.731837583E0,-8.920658380E-3,-4.574480087E-3,-1.993959010E-2,2.231795840E-2
2.741787583E0,-6.593206166E-3,-1.669888731E-2,-1.395204127E-2,2.273725270E-2
2.751737583E0,-5.333172306E-3,-6.343765317E-3,-9.311106205E-3,1.246526309E-2
2.761687583E0,-4.518086433E-3,-4.149627336E-3,-1.799246728E-2,1.900950791E-2
2.771638583E0,-1.026697978E-3,1.534519522E-3,-1.230429590E-2,1.244204792E-2
2.781588583E0,-1.783245457E-3,2.830765005E-3,-1.170437157E-2,1.217314704E-2
2.791538583E0,-1.287400200E-2,1.115498455E-2,-4.818105698E-3,1.770276109E-2
2.801488583E0,-5.848894443E-3,4.664897227E-3,-8.560323715E-3,1.136881588E-2
2.811438583E0,1.847190242E-3,-8.471895999E-3,-1.784043968E-2,1.983598804E-2
2.821389583E0,-1.191310575E-2,8.845300104E-3,-2.143296897E-2,2.606786492E-2
2.831339583E0,-3.757441335E-3,8.403172942E-3,-1.843977928E-2,2.060963709E-2
2.841289583E0,-8.529157599E-3,1.422546484E-2,-2.472729027E-2,2.977497714E-2
2.851239583E0,-8.030604806E-3,4.485211833E-3,-1.888884544E-2,2.100943171E-2
2.861189583E0,-1.110595930E-2,-3.032676671E-3,-1.454787254E-2,1.855209032E-2
2.871139583E0,-1.285530004E-2,-1.011057590E-2,-1.110503197E-2,1.976876878E-2
2.881090583E0,-2.114860243E-3,-1.164152999E-2,-1.424849510E-2,1.852073074E-2
2.891040583E0,-1.115659482E-2,-7.456954122E-3,-4.218766093E-3,1.406676082E-2
2.900990583E0,-2.660994753E-3,-4.754903235E-3,-1.469697654E-2,1.567453723E-2
2.910940583E0,-1.295409971E-2,-1.231186758E-2,-3.026401877E-2,3.514685783E-2
2.920891583E0,-8.291648724E-4,-1.018162186E-2,-2.233051658E-2,2.455615826E-2
2.930841583E0,-7.019299166E-3,-3.053719795E-3,-1.604242086E-2,1.777512398E-2
2.940791583E0,-5.335942882E-3,-3.505862597E-4,-1.289837301E-2,1.396292317E-2
2.950741583E0,-9.273156405E-3,-5.432787391E-3,-2.053249776E-2,2.317520384E-2
2.960691583E0,-6.928866038E-3,4.920043680E-4,-1.634062886E-2,1.775577102E-2
2.970642583E0,-1.717546508E-3,8.969695049E-3,-1.184938252E-2,1.496038975E-2
2.980592583E0,-3.846967688E-3,8.905485312E-3,-2.217673481E-2,2.420566867E-2
2.990542583E0,-1.208783243E-2,5.322078585E-3,-1.439292133E-2,1.953449251E-2
3.000492583E0,-5.420857701E-3,1.670012756E-3,-1.289603412E-2,1.408837595E-2
3.010442583E0,-4.656615194E-3,7.143621021E-3,-2.053132832E-2,2.223175272E-2
3.020393583E0,-3.070222191E-3,-1.982209761E-2,-1.559218526E-2,2.540586663E-2
3.030343583E0,-6.385212026E-3,-8.753073981E-3,-1.978288472E-2,2.255548192E-2
3.040293583E0,-1.541787428E-3,-4.467754697E-3,-1.768607318E-2,1.830669618E-2
3.050243583E0,-6.518932823E-3,-1.409113191E-2,-1.693704486E-2,2.297650914E-2
3.060193583E0,-7.402956455E-3,-2.374080332E-2,-1.813455462E-2,3.077810225E-2
3.070144583E0,8.520946372E-5,-1.467566161E-2,-1.753579974E-2,2.286671330E-2
3.080094583E0,-7.459663027E-3,-1.036403214E-2,-1.663825214E-2,2.097358265E-2
3.090044583E0,-1.796257796E-3,-5.062409677E-3,-7.956891060E-3,9.600346303E-3
3.099994583E0,-3.722367177E-3,-6.072650941E-3,-2.127918720E-2,2.243962822E-2
3.109944583E0,-5.067076029E-3,3.663241777E-3,-1.858479023E-2,1.960839177E-2
3.119895583E0,-4.109678976E-3,4.272274969E-3,-1.244696796E-2,1.378654438E-2
3.129845583E0,-8.145753841E-3,1.109004391E-2,-3.314786553E-3,1.415380477E-2
3.139795583E0,2.568757210E-3,9.076756197E-3,-1.678677142E-2,1.925569296E-2
3.149745583E0,4.438995989E-3,5.266164585E-3,-1.499109149E-2,1.649757555E-2
3.159695583E0,2.814120997E-3,6.265332685E-3,-8.704165220E-3,1.108765813E-2
3.169646583E0,-3.336608545E-3,-4.282651492E-4,-1.948175311E-2,1.977005493E-2
3.179596583E0,-4.928403371E-4,3.612738736E-3,-1.379358172E-2,1.426736379E-2
3.189546583E0,-1.107157036E-2,-4.532334453E-3,-8.554476500E-3,1.470716812E-2
3.199496583E0,-4.529292074E-3,-1.367863369E-2,-1.618860126E-2,2.167233990E-2
3.209446583E0,-1.940953543E-3,-6.914245714E-3,-1.708731830E-2,1.853511643E-2
3.219397583E0,1.146511082E-4,-1.294061000E-2,-1.424264789E-2,1.924384450E-2
3.229347583E0,-1.128721156E-2,-1.087017261E-2,-1.020046771E-2,1.869789664E-2
3.239297583E0,-7.719530649E-3,-1.209342840E-2,-2.666622698E-2,3.028084915E-2
3.249247583E0,2.052368126E-3,-1.359788044E-2,-1.484140277E-2,2.023318570E-2
3.259198583E0,-4.127108704E-3,-5.093630610E-3,-1.005077899E-2,1.199984405E-2
3.269148583E0,-7.887277217E-3,1.936070204E-3,-1.858245134E-2,2.027966981E-2
3.279098583E0,-2.047658376E-3,-1.069721152E-2,-1.229610980E-2,1.642612417E-2
3.289048583E0,7.323294994E-4,1.174490922E-4,-7.206693292E-3,7.244758725E-3
3.298998583E0,-2.563200071E-3,1.906329347E-4,-1.693587542E-2,1.712980477E-2
3.308949583E0,-2.422293595E-3,-8.077403088E-4,-1.304396868E-2,1.329154128E-2
3.318899583E0,3.005571628E-3,6.223764920E-3,-1.783459246E-2,1.912698091E-2
3.328849583E0,-5.700286087E-3,1.915422224E-3,-2.022961199E-2,2.110448543E-2
3.338799583E0,-1.680286496E-3,2.040701103E-3,-1.603832781E-2,1.625471571E-2
3.348749583E0,3.370531532E-4,-8.631362817E-3,-1.484198749E-2,1.717261254E-2
3.358700583E0,-8.133335360E-3,-9.114525556E-3,-1.469171405E-2,1.910686217E-2
3.368650583E0,-5.197263372E-3,-3.272465046E-3,-2.202646136E-2,2.286669137E-2
3.378600583E0,-1.691578932E-3,-1.002539385E-2,-1.663825214E-2,1.949875369E-2
3.388550583E0,-2.171400078E-3,-5.865903902E-3,-2.202821553E-2,2.289904116E-2
3.398500583E0,1.504611927E-3,-6.738077786E-3,-1.544191182E-2,1.691502852E-2
3.408451583E0,-6.380280722E-3,-1.474582592E-2,-1.140031636E-2,1.970062378E-2
3.418401583E0,-5.331673957E-3,-1.591341667E-2,-1.349654317E-2,2.153648659E-2
3.428351583E0,-4.295967612E-3,-7.970853571E-3,-1.499343038E-2,1.751550167E-2
3.438301583E0,4.492918281E-3,-8.135206013E-3,-1.424498677E-2,1.700845495E-2
3.448251583E0,1.005593184E-3,-8.293699818E-3,-1.664059103E-2,1.862004146E-2
3.458202583E0,4.289503698E-3,-9.938204095E-3,-2.023312032E-2,2.294660978E-2
3.468152583E0,-1.120257997E-3,-5.659940299E-3,-2.053249776E-2,2.132776047E-2
3.478102583E0,-4.965645110E-3,2.484408841E-3,-1.499401510E-2,1.598907150E-2
3.488052583E0,-8.043409295E-3,6.093662088E-3,-1.319775045E-2,1.661354169E-2
3.498003583E0,-6.553602701E-3,1.632394146E-3,-1.679144919E-2,1.809881722E-2
3.507953583E0,-2.697585532E-3,5.805677581E-3,-1.783927023E-2,1.895316391E-2
3.517903583E0,-1.512692962E-4,1.919691148E-3,-1.454670310E-2,1.467360445E-2
3.527853583E0,-7.312616974E-3,-2.438092497E-3,-1.200141013E-2,1.426367789E-2
3.537803583E0,-9.898029612E-3,-7.690927258E-3,-2.547339499E-2,2.839040691E-2
3.547754583E0,-8.225369621E-3,-4.281454640E-3,-2.382623434E-2,2.556710782E-2
3.557704583E0,7.346067159E-4,-3.037425249E-3,-6.163550019E-3,6.910495497E-3
3.567654583E0,-8.161639539E-4,-1.758148111E-3,-6.911993623E-3,7.178639441E-3
3.577604583E0,1.610026262E-3,-1.456644887E-2,-1.439584494E-2,2.054297858E-2
3.587554583E0,-4.500332368E-3,-1.654245145E-2,-2.113183737E-2,2.721139912E-2
3.597505125E0,7.016498898E-4,-1.053166679E-2,-1.544425070E-2,1.870650148E-2
3.607455125E0,5.967385070E-3,-1.432752388E-2,-1.753930807E-2,2.342039608E-2
3.617405125E0,-4.288578650E-3,2.118341164E-3,-1.843860984E-2,1.904892671E-2
3.627355125E0,-1.247298350E-2,7.917248765E-3,-2.532487571E-2,2.931906334E-2
3.637306125E0,4.444941420E-3,-4.147822922E-3,-1.559452415E-2,1.673771557E-2
3.647256125E0,-6.762668069E-3,3.764684116E-3,-2.592304587E-2,2.705385062E-2
3.657206125E0,-5.211920240E-3,8.836600087E-3,-1.559452415E-2,1.866651540E-2
3.667156125E0,-9.192789167E-3,-1.420231580E-3,-2.203113914E-2,2.391433716E-2
3.677106125E0,-9.358420686E-3,2.187941303E-3,-1.110386252E-2,1.468546519E-2
3.687057125E0,-3.644311416E-3,2.540617485E-3,-3.320049047E-3,5.546031787E-3
3.697007125E0,-1.096393591E-2,-9.928026285E-3,-2.871567607E-3,1.506716619E-2
3.706957125E0,-3.626842860E-3,-1.052406998E-2,-1.155351341E-2,1.604349432E-2
3.716907125E0,-1.166131231E-3,2.296804581E-3,-1.439642966E-2,1.462505932E-2
3.726857125E0,-1.017331013E-2,-1.467849158E-2,-1.529514670E-2,2.351373783E-2
3.736808125E0,-2.580435653E-3,-8.949371406E-3,-1.888650656E-2,2.105825317E-2
3.746758125E0,-9.158110153E-4,-1.112195463E-2,-1.813806295E-2,2.129614783E-2
3.756708125E0,-3.664057190E-3,-1.095938605E-2,-1.110210836E-2,1.602467683E-2
3.766658125E0,-1.845559417E-3,2.836740129E-3,-1.095241964E-2,1.146336251E-2
3.776609125E0,-4.797064858E-3,-6.783021404E-4,-2.367654562E-2,2.416714169E-2
3.786559125E0,-4.666068954E-3,-1.032312219E-3,-1.619210958E-2,1.688260290E-2
3.796509125E0,-1.482771663E-3,6.045472808E-3,-1.334743917E-2,1.472754174E-2
3.806459125E0,-5.792382017E-3,-5.188855715E-4,-1.679086447E-2,1.776946992E-2
3.816409125E0,-8.714610266E-3,-5.272863759E-4,-1.574362814E-2,1.800234124E-2
3.826360125E0,-1.065947413E-3,1.107471096E-2,-1.559276998E-2,1.915515446E-2
3.836310125E0,-1.104266319E-2,1.133071622E-3,-2.128094137E-2,2.400214005E-2
3.846260125E0,-3.485785634E-3,-5.391717553E-3,-1.723934591E-2,1.839609652E-2
3.856210125E0,6.867988757E-4,-1.417212042E-3,-1.499343038E-2,1.507591248E-2
3.866161125E0,-3.447781017E-3,-8.176977059E-3,-8.706504107E-3,1.243194922E-2
3.876111125E0,-2.350087333E-3,-3.942087726E-3,-1.409529805E-2,1.482364305E-2
3.886061125E0,-4.391976153E-3,-5.142103115E-3,-1.888416767E-2,2.005847620E-2
3.896011125E0,6.195650320E-3,-1.215722929E-2,-1.214759052E-2,1.826877835E-2
3.905961125E0,1.227588665E-3,1.156401099E-4,-2.172825336E-2,2.176321072E-2
3.915912125E0,-8.519422899E-3,-1.187664745E-2,-1.559043109E-2,2.137046707E-2
3.925862125E0,-4.968614399E-3,-3.447785585E-3,-1.903327167E-2,1.997097356E-2
3.935812125E0,2.148232770E-3,-1.060020027E-2,-1.229727924E-2,1.637688085E-2
3.945762125E0,-5.745816710E-3,-4.256635951E-3,-1.633945942E-2,1.783567474E-2
3.955712125E0,-6.442448501E-3,-2.499225594E-3,-2.457292378E-2,2.552606226E-2
3.965663125E0,-3.971344361E-3,-1.282177905E-3,-1.948233783E-2,1.992428276E-2
3.975613125E0,-6.643885081E-3,-9.654657533E-3,-1.574011981E-2,1.962409215E-2
3.985563125E0,-5.657240530E-3,-8.577015689E-3,-2.023078144E-2,2.269039634E-2
3.995513125E0,-6.797778772E-3,-6.420060061E-4,-1.574011981E-2,1.715731155E-2
4.005464125E0,-1.397843140E-3,4.678083155E-3,-1.199848652E-2,1.295384523E-2
4.015414125E0,-8.618293377E-4,4.434475817E-3,-1.050218403E-2,1.143254981E-2
4.025364125E0,-1.042846572E-2,-1.093358521E-2,-1.918412983E-2,2.441980795E-2
4.035314125E0,-6.340131364E-3,5.522560424E-3,-1.125062764E-2,1.404537510E-2
4.045264125E0,-6.489600814E-3,-8.310396359E-3,-1.439409077E-2,1.784285447E-2
4.055215125E0,1.110756272E-3,-7.614616526E-3,-1.798662007E-2,1.956360564E-2
4.065165125E0,-2.157723075E-3,-7.278705407E-3,-1.140031636E-2,1.369680745E-2
4.075115125E0,6.703325682E-3,-1.077715849E-2,-1.738786519E-2,2.152718226E-2
4.085065125E0,-7.044426205E-3,-3.511259852E-3,-2.382448018E-2,2.509100919E-2
4.095016125E0,-6.210416823E-3,-2.177964491E-3,-2.157973409E-2,2.256097803E-2
4.104966125E0,-2.025352162E-4,-1.060299140E-2,-1.439467549E-2,1.787934925E-2
4.114916125E0,-9.889491764E-4,-1.216795756E-2,-1.184996724E-2,1.701349274E-2
4.124866125E0,-1.111526003E-2,1.384791972E-3,-1.649031758E-2,1.993482451E-2
4.134816125E0,-6.219157954E-3,-1.668349954E-3,-4.365531206E-3,7.779407428E-3
4.144767125E0,-1.067431830E-2,-3.304818878E-3,-2.307662129E-2,2.563968310E-2
4.154717125E0,-8.361230590E-3,-1.728868636E-3,-2.292693257E-2,2.446514666E-2
4.164667125E0,-6.724398499E-3,-5.332957604E-3,-2.247786641E-2,2.406059954E-2
4.174617125E0,-1.299125694E-3,4.068885511E-3,-2.831572652E-2,2.863605987E-2
4.184568125E0,-8.426340250E-3,-1.866431236E-3,-2.023253560E-2,2.199641499E-2
4.194518125E0,-1.244046978E-2,-5.544912319E-3,-2.142946064E-2,2.539159555E-2
4.204468125E0,-1.613801827E-3,4.922540167E-3,-1.708907247E-2,1.785699179E-2
4.214418125E0,-1.051923232E-2,-3.444350346E-3,-1.005370259E-2,1.495308442E-2
4.224368125E0,-2.594082963E-3,-1.966423192E-4,-1.110269308E-2,1.140340863E-2
4.234319125E0,6.101752259E-4,-4.303061930E-3,-2.442498922E-2,2.480864273E-2
4.244269125E0,-4.626321592E-3,-3.614766989E-3,-1.634238303E-2,1.736498992E-2
4.254219125E0,-6.866074707E-3,-3.952882234E-3,-2.307779074E-2,2.439985011E-2
4.264169125E0,-5.298913561E-3,-7.563811988E-3,-1.843860984E-2,2.062212573E-2
4.274120125E0,-2.784868930E-3,-4.366463106E-3,-1.858888328E-2,1.929684111E-2
4.284070125E0,-8.476758781E-3,-3.961680466E-3,-1.664292991E-2,1.909286431E-2
4.294020125E0,-5.286316923E-3,-1.053020956E-2,-2.173176169E-2,2.472043540E-2
4.303970125E0,-1.079192042E-2,-8.089887807E-3,-2.128211081E-2,2.519603286E-2
4.313921125E0,-3.210511969E-3,-5.514198449E-4,-1.798895895E-2,1.828152333E-2
4.323871125E0,-4.533291478E-3,-1.456885628E-2,1.320886016E-3,1.531492882E-2
4.333821125E0,-2.668463658E-3,-3.594667185E-5,-1.619269431E-2,1.641113462E-2
4.343771125E0,-9.129221253E-3,-1.457121572E-4,-2.652238548E-2,2.804997048E-2
4.353721125E0,-1.159620722E-2,-7.778836491E-3,-1.514662743E-2,2.060103496E-2
4.363672125E0,-8.089186598E-3,2.795805051E-3,-6.764643788E-3,1.090925622E-2
4.373622125E0,1.289107769E-3,-2.719341286E-3,-1.320125878E-2,1.353993535E-2
4.383572125E0,-2.966399852E-3,2.120890184E-3,-8.709427714E-3,9.442024908E-3
4.393522125E0,-2.481199724E-3,-8.363185753E-3,-1.858829856E-2,2.053348659E-2
4.403473125E0,-2.933833601E-3,-5.325781060E-3,-1.275102317E-2,1.412656772E-2
4.413423125E0,-9.036540601E-3,-6.568755212E-3,-2.122539282E-3,1.137157791E-2
4.423373125E0,-7.935996400E-5,-1.435054729E-2,-1.200199485E-2,1.870808343E-2
4.433323125E0,-5.714847024E-3,-1.503755630E-2,-1.140323997E-2,1.971855617E-2
4.443273125E0,-6.224429584E-3,-1.405823904E-2,-9.906352758E-3,1.828970840E-2
4.453224125E0,-4.341308658E-3,-8.991610687E-3,-1.783985496E-2,2.044398318E-2
4.463174125E0,-4.155805742E-3,-5.337434378E-4,-1.933732688E-2,1.978605101E-2
4.473124125E0,-4.019309802E-3,-1.441299829E-3,-1.409822166E-2,1.473065003E-2
4.483074125E0,-2.085934798E-3,-7.673737358E-3,-1.454670310E-2,1.657841790E-2
4.493025125E0,-1.282002489E-2,-3.941464175E-3,-1.035541892E-2,1.694470062E-2
4.502975125E0,-9.169768039E-3,-3.472469514E-4,-2.232993186E-2,2.414189477E-2
4.512925125E0,-6.169931707E-3,-9.973093243E-3,-1.963611960E-2,2.287155087E-2
4.522875125E0,-7.754531717E-3,-2.489458916E-3,-9.157909155E-3,1.225550766E-2
4.532826125E0,-8.328863054E-3,-2.230297071E-3,-7.661021948E-3,1.153409910E-2
4.542776125E0,-5.144014880E-3,-1.316877247E-2,-1.739137352E-2,2.241288313E-2
4.552726125E0,7.930514636E-4,-8.913221452E-3,-2.397767723E-2,2.559303523E-2
4.562676125E0,-7.575670872E-3,-1.827351051E-2,-2.053483665E-2,2.851300566E-2
4.572627125E0,-2.042229145E-3,-6.224374766E-3,-1.275102317E-2,1.433534559E-2
4.582577125E0,-7.391428761E-3,-9.357143892E-3,-1.379884422E-2,1.823725480E-2
4.592527333E0,-7.633281935E-3,-2.611903267E-3,-2.188261986E-2,2.332248022E-2
4.602477333E0,-2.945464079E-3,-5.983837217E-3,-1.574479759E-2,1.709914377E-2
4.612427333E0,-2.445451766E-3,-6.490199240E-3,-9.457286596E-3,1.172788089E-2
4.622378333E0,1.353264973E-4,-7.258541649E-4,-9.756664038E-3,9.784562876E-3
4.632328333E0,-8.565659299E-3,-1.819452513E-3,-2.412678123E-2,2.566675864E-2
4.642278333E0,-6.264302570E-3,3.179185968E-3,-1.619327903E-2,1.765137376E-2
4.652228333E0,-8.365636559E-3,-1.375580323E-4,-1.858888328E-2,2.038502830E-2
4.662179333E0,-3.742898670E-3,-8.991539881E-3,-1.709199607E-2,1.967214807E-2
4.672129333E0,-1.206545541E-3,-1.275894432E-3,-7.960984111E-3,8.152357129E-3
4.682079333E0,-3.643893432E-3,1.750268075E-3,-2.472670555E-2,2.505496687E-2
4.692029333E0,-1.235939220E-2,-9.934556438E-4,-1.320125878E-2,1.811117785E-2
4.701980333E0,-1.178007931E-2,-9.867286049E-3,-1.290129662E-2,2.006432299E-2
4.711930333E0,-1.403676651E-3,-8.349138731E-4,-2.128328025E-2,2.134585224E-2
4.721880333E0,-5.008423431E-3,-1.326989047E-3,-1.993608177E-2,2.059836308E-2
4.731830333E0,-9.595205511E-3,-1.320622891E-2,-1.799012840E-2,2.429232740E-2
4.741780333E0,-1.209364082E-2,-9.896168096E-3,-2.233051658E-2,2.725513276E-2
4.751731333E0,-5.223217243E-3,-5.273060189E-3,-1.828833640E-2,1.973703145E-2
4.761681333E0,-1.494832916E-2,-1.133022058E-2,-1.753989279E-2,2.568023135E-2
4.771631333E0,-3.135955401E-3,-7.917819782E-3,-1.619269431E-2,1.829561246E-2
4.781581333E0,-1.056843116E-2,-1.254888995E-2,-3.160946310E-2,3.561354424E-2
4.791532333E0,-8.323810694E-3,-7.322954668E-3,-8.258022666E-3,1.382412485E-2
4.801482333E0,-3.995059845E-3,7.055972172E-3,-1.259899557E-2,1.498272124E-2
4.811432333E0,-1.817187859E-2,1.195888077E-3,-1.589916408E-2,2.417500234E-2
4.821382333E0,-1.110721188E-1,3.036736831E-2,2.668242377E-1,2.906103344E-1
4.831333333E0,1.197607341E-1,-5.080756229E-2,-3.643984795E-1,3.869241446E-1
4.841283333E0,1.200975520E-1,-4.610411684E-2,-4.225700891E-1,4.417176607E-1
4.851233333E0,-2.449368670E-1,8.388283099E-2,6.717708188E-1,7.199350187E-1
4.861183333E0,2.443864339E-2,-1.262846005E-2,-1.055773258E-1,1.091022320E-1
4.871134333E0,1.286524396E-1,-5.562196780E-2,-4.002828419E-1,4.241127292E-1
4.881084333E0,-1.069467985E-1,3.582298040E-2,3.004012889E-1,3.208766710E-1
4.891034333E0,-3.867944574E-2,8.609648177E-3,-5.277112126E-3,3.997591121E-2
4.900984333E0,6.018847877E-2,-4.373367389E-2,-1.772583425E-1,1.922389326E-1
4.910935333E0,-7.631007459E-2,-1.986282712E-2,5.850256205E-2,9.818507601E-2
4.920885333E0,-5.017155882E-1,-3.432275754E-1,-2.951323628E-2,6.086006335E-1
4.930835333E0,-1.712773864E0,-1.238284885E0,-2.382038713E-2,2.113648783E0
4.940785333E0,-2.316038266E0,-1.763134763E0,-4.924408078E-2,2.911202917E0
4.950735333E0,1.203050002E0,1.156915654E-1,-9.142063200E-2,1.212052630E0
4.960686333E0,4.310672337E0,1.219901605E0,1.517171198E-1,4.482529866E0
4.970636333E0,1.140592384E0,1.302132972E0,-1.071829712E-1,1.734355630E0
4.980586333E0,2.453431388E-1,1.376652812E0,1.098171419E-1,1.402649644E0
4.990536333E0,1.628660059E0,-1.352351117E-2,-3.914710879E-2,1.629186597E0
5.000487333E0,1.187063203E0,4.928333387E-1,8.284627497E-2,1.287970207E0
5.010437333E0,7.476438506E-1,5.795784640E-1,6.538356543E-2,9.482391755E-1
5.020387333E0,2.323287169E-1,3.308987577E-1,-6.969003975E-2,4.102771285E-1
5.030337333E0,-5.026817675E-1,4.674456420E-1,6.521633506E-2,6.895270538E-1
5.040288333E0,-1.921721630E0,7.183228415E-1,5.842023325E-1,2.133141837E0
5.050238333E0,-3.211552792E0,1.575562663E0,2.993953339E0,4.664785701E0
5.060188333E0,-2.886281540E0,2.222986992E0,3.518119385E0,5.064529228E0
5.070138333E0,-1.830222646E0,2.579401829E0,2.117248136E0,3.806017393E0
5.080089333E0,-1.186347065E-2,1.443636468E0,1.828530169E0,2.329753114E0
5.090039333E0,1.283369842E0,-8.070509769E-1,3.214930143E0,3.554454284E0
5.099989333E0,1.826439936E0,-1.396243762E0,2.806952950E0,3.628272915E0
5.109939333E0,1.482430259E0,-1.858950309E0,1.303334429E0,2.711452813E0
5.119890333E0,6.171463495E-1,-1.640913192E0,1.561834570E0,2.347933761E0
5.129840333E0,5.499362601E-1,-4.471723951E-1,2.552736479E-1,7.533642389E-1
5.139790333E0,1.155016003E0,1.890420900E-1,7.301079047E-1,1.379440623E0
5.149740333E0,1.971909159E0,-1.192700723E0,-4.591222036E-1,2.349841260E0
5.159690333E0,1.000479648E0,-4.768393547E0,-4.126674786E0,6.384980919E0
5.169641333E0,9.175993131E-1,-5.439955913E0,-1.656451290E0,5.760116293E0
5.179591333E0,-1.524360642E0,-2.706259511E0,1.231597279E0,3.341309289E0
5.189541333E0,-3.225656276E0,1.662052046E0,5.737613688E0,6.788776491E0
5.199491333E0,-3.157043878E0,6.171623270E0,6.946391623E0,9.813674970E0
5.209442333E0,-2.028261993E0,8.010071486E-2,6.640006878E0,6.943338835E0
5.219392333E0,5.243007510E-1,-1.564391119E0,2.855796497E0,3.298148645E0
5.229342333E0,4.257362833E-1,2.318654895E-2,2.338868719E0,2.377413697E0
5.239292333E0,-1.828784669E-1,-1.106678971E0,2.244078337E0,2.508798609E0
5.249243333E0,-2.168128560E-1,-1.030710118E0,7.007560515E-1,1.265081107E0
5.259193333E0,-4.644534755E-1,-1.177477278E0,5.295238495E-3,1.265779527E0
5.269143333E0,-1.376094695E0,-6.892629837E-1,1.222902469E0,1.965759527E0
5.279093333E0,-1.173788708E0,1.045001225E-1,2.121441175E0,2.426770048E0
5.289044333E0,-1.027374940E0,1.544810694E0,3.808738866E0,4.236558875E0
5.298994333E0,-7.396161351E-1,2.459959293E0,6.678248838E0,7.155238591E0
5.308944333E0,7.442071496E-1,2.617663596E-1,7.830507002E0,7.870146493E0
5.318894333E0,2.208654297E0,-2.454576931E0,6.095997137E0,6.932840890E0
5.328845333E0,1.558533525E0,-1.482176490E0,4.057710385E0,4.592481624E0
5.338795333E0,-3.195956513E-1,-1.995940631E0,3.331982630E0,3.897182140E0
5.348745333E0,-2.022274298E0,-2.163327704E0,2.515182152E0,3.885321267E0
5.358695333E0,-1.954742027E0,-2.054027748E0,8.312530410E-1,2.954831298E0
5.368646333E0,-1.614484069E0,-1.645526353E0,1.156762274E0,2.579227548E0
5.378596333E0,-1.807262238E0,-4.946510553E-1,2.960388567E0,3.503537773E0
5.388546333E0,-1.925884263E0,1.700896561E-1,5.221634914E0,5.568072544E0
5.398496333E0,-2.144142405E0,-7.016682172E-1,6.942517843E0,7.299879378E0
5.408447333E0,-2.813172926E0,-2.697947694E0,7.504117763E0,8.456042045E0
5.418397333E0,-3.445811839E0,-3.005706242E0,5.451283139E0,7.115080963E0
5.428347333E0,-1.976364884E0,-4.818499800E0,1.489420897E0,5.416856384E0
5.438297333E0,-1.439845864E0,-6.080786190E0,-9.425436813E-1,6.319612757E0
5.448248333E0,-2.309871646E0,-4.853552104E0,-2.373379571E0,5.875832335E0
5.458198333E0,-3.087770160E0,-2.886446432E0,-3.037423879E0,5.204982362E0
5.468148333E0,-3.592715531E0,-1.740291592E0,-1.367931544E0,4.219888200E0
5.478098333E0,-3.515988367E0,-1.505409524E0,1.085805727E0,3.975852878E0
5.488049333E0,-3.066232233E0,-1.888047223E0,2.578189994E0,4.428720590E0
5.497999333E0,-1.026793873E0,-3.446957016E0,3.126044864E0,4.765288535E0
5.507949333E0,5.961410312E-1,-3.604787984E0,1.869847764E0,4.104413625E0
5.517899333E0,2.718003644E-1,-4.508512001E0,-5.504720843E-1,4.550118176E0
5.527850333E0,-1.437344133E0,-4.135162604E0,-3.072173882E0,5.348250207E0
5.537800333E0,-2.682430646E0,-2.745326221E0,-4.811936300E0,6.155240141E0
5.547750333E0,-3.004077500E0,-2.080644566E0,-4.700756173E0,5.954046694E0
5.557700333E0,-2.716671648E0,-2.191295521E0,-3.056493988E0,4.639421990E0
5.567651333E0,-2.939514592E0,-1.528420072E0,-1.229294060E0,3.533833306E0
5.577601333E0,-2.515168996E0,-1.261818028E0,1.027566290E-1,2.815815821E0
5.587551333E0,-3.659275264E-2,-2.336889437E0,9.618763304E-1,2.527369649E0
5.597501000E0,6.387597781E-1,-2.241233082E0,4.031210804E-1,2.365089086E0
5.607452000E0,-1.702076529E0,-1.900708199E0,-1.078870929E0,2.770147767E0
5.617402000E0,-4.057277107E0,-1.555589159E0,-2.189944814E0,4.865923699E0
5.627352000E0,-5.028106109E0,-1.249818957E0,-2.662757689E0,5.825304883E0
5.637302000E0,-5.623975976E0,-1.142833622E0,-2.796602794E0,6.384055267E0
5.647253000E0,-5.378505185E0,-2.467800409E0,-3.052515250E0,6.658543852E0
5.657203000E0,-2.275971682E0,-3.853392298E0,-2.555665057E0,5.153649502E0
5.667153000E0,1.862414199E0,-4.267144201E0,-2.465265641E0,5.268267359E0
5.677103000E0,2.937466020E0,-4.664501681E0,-2.982243997E0,6.267380778E0
5.687054000E0,1.855803922E0,-4.833399675E0,-4.097409764E0,6.602615193E0
5.697004000E0,-1.166137699E0,-2.062038141E0,-4.091033375E0,4.727412877E0
5.706954000E0,-3.182723095E0,-6.396105480E-1,-3.944221192E0,5.108395909E0
5.716904000E0,-3.666709998E0,-1.932350407E0,-2.421359484E0,4.800179377E0
5.726855000E0,-2.928993112E0,-2.284701868E0,-1.575741003E0,4.035074099E0
5.736805000E0,-9.480903500E-1,-2.042592056E0,-1.183239051E0,2.543838099E0
5.746755000E0,1.601776316E0,-2.633917467E0,-1.306532125E0,3.348168870E0
5.756705000E0,2.387766060E0,-3.150472192E0,-2.670136875E0,4.770380773E0
5.766656000E0,1.840857854E0,-2.368189582E0,-3.601154525E0,4.686725237E0
5.776606000E0,9.205505490E-1,-1.723865594E0,-3.415441108E0,3.935017645E0
5.786556000E0,2.978922486E-2,-1.447637279E0,-2.891695477E0,3.233951735E0
5.796506000E0,-1.278522354E0,-7.009811693E-1,-1.925344858E0,2.415149442E0
5.806457000E0,-2.029773206E0,-5.223510700E-1,-7.178153032E-1,2.215420663E0
5.816407000E0,9.379290587E-1,-1.910602273E0,1.058367668E0,2.377026311E0
5.826357000E0,4.105880333E0,-2.333692764E0,8.570060791E-1,4.799878607E0
5.836307000E0,4.239797359E0,-2.458123267E0,-7.344840340E-1,4.955574481E0
5.846258000E0,2.927271692E0,-1.951343333E0,-2.022333793E0,4.057892843E0
5.856208000E0,1.907417879E0,-1.511728025E0,-2.145947440E0,3.244788900E0
5.866158000E0,1.042807642E0,-1.316477800E0,-1.391454892E0,2.180987917E0
5.876108000E0,-2.573084790E-1,-9.899464738E-1,-8.893322647E-1,1.355401620E0
5.886059000E0,-1.426641097E0,-3.213974708E-1,-4.588351784E-1,1.532687468E0
5.896009000E0,-1.305278043E0,-4.291569775E-1,2.764240502E-1,1.401547979E0
5.905959000E0,1.102760898E0,-1.000296630E0,9.044203468E-1,1.742025003E0
5.915909000E0,3.510610390E0,-1.487690122E0,6.218847138E-1,3.863204345E0
5.925860000E0,3.731459141E0,-1.325286630E0,-4.088408998E-1,3.980869610E0
5.935810000E0,2.698772444E0,-7.125370216E-1,-1.203235944E0,3.039549054E0
5.945760000E0,2.174349121E0,-5.815973979E-1,-1.408482569E0,2.655159652E0
5.955710000E0,1.875737080E0,-7.111471385E-1,-1.215949545E0,2.345773463E0
5.965661000E0,1.840156773E0,-6.449291754E-1,-1.013888483E0,2.197744400E0
5.975611000E0,2.161851282E0,-8.099902260E-1,-6.763439993E-1,2.405644682E0
5.985561000E0,2.570000968E0,-9.278221464E-1,-4.394148210E-1,2.767461706E0
5.995512000E0,2.859332893E0,-9.087689942E-1,-4.810399067E-1,3.038592613E0
6.005462000E0,3.269165407E0,-1.127630276E0,-3.802790786E-1,3.479023524E0
6.015412000E0,3.904056668E0,-1.289899281E0,2.043460806E-1,4.116704500E0
6.025362000E0,4.277689655E0,-1.356220740E0,9.303895857E-1,4.582967190E0
6.035313000E0,4.277615980E0,-1.391558388E0,1.614993947E0,4.779397312E0
6.045263000E0,4.102468482E0,-1.383191022E0,1.605873460E0,4.617607023E0
6.055213000E0,4.067039618E0,-1.671074007E0,1.252309286E0,4.571824378E0
6.065163000E0,4.984425069E0,-1.967354178E0,1.027261577E0,5.456211330E0
6.075114000E0,6.299169754E0,-2.030470778E0,9.902826156E-1,6.692010971E0
6.085064000E0,6.952579731E0,-2.374406342E0,8.297706988E-1,7.393557318E0
6.095014000E0,6.527470196E0,-2.690629612E0,3.535653430E-1,7.069113334E0
6.104964000E0,5.801075274E0,-2.675701670E0,1.691190183E-1,6.390653723E0
6.114915000E0,5.658777434E0,-2.677026064E0,4.416524774E-1,6.275610528E0
6.124865000E0,5.698573583E0,-3.034546464E0,1.171844070E0,6.561663787E0
6.134815000E0,5.581834508E0,-3.176618602E0,1.947990539E0,6.711367174E0
6.144765000E0,5.177053987E0,-3.303659302E0,2.112868572E0,6.494633660E0
6.154716000E0,4.592250561E0,-3.735676153E0,1.872390134E0,6.208855478E0
6.164666000E0,4.253047734E0,-3.921604747E0,1.759450579E0,6.046740044E0
6.174616000E0,4.021018522E0,-4.330252030E0,1.488194152E0,6.093799672E0
6.184566000E0,3.424246430E0,-4.873944853E0,1.861140676E0,6.240564611E0
6.194517000E0,2.768744320E0,-4.904756171E0,1.835828079E0,5.923921247E0
6.204467000E0,2.256841055E0,-5.069314946E0,1.565510130E0,5.765596893E0
6.214417000E0,2.003493479E0,-5.642894057E0,1.024539771E0,6.075024379E0
6.224367000E0,1.736968912E0,-6.323970135E0,2.396738430E-1,6.562553072E0
6.234318000E0,1.283385337E0,-6.489089073E0,-4.749892080E-1,6.631814960E0
6.244268000E0,1.253942121E0,-6.936740794E0,-6.339048350E-1,7.077611110E0
6.254218000E0,1.291117695E0,-7.554794412E0,2.639853962E-1,7.668871612E0
6.264169000E0,6.866364875E-1,-7.310993586E0,5.022348940E-1,7.360321784E0
6.274119000E0,-8.975544000E-1,-6.722052670E0,2.969800830E-2,6.781775429E0
6.284069000E0,-2.769172336E0,-6.100284900E0,-9.147419250E-1,6.761548941E0
6.294019000E0,-4.137989148E0,-5.504449532E0,-1.633763509E0,7.077506767E0
6.303970000E0,-4.282143771E0,-5.301093897E0,-1.244697965E0,6.927310070E0
6.313920000E0,-3.808384233E0,-4.714866089E0,-8.205222309E-1,6.116126996E0
6.323870000E0,-3.485229381E0,-4.137168784E0,-9.030732214E-1,5.484389722E0
6.333820000E0,-3.498382401E0,-3.462818173E0,-1.271178836E0,5.083865139E0
6.343771000E0,-3.986996206E0,-3.095632326E0,-1.827444926E0,5.368298911E0
6.353721000E0,-4.627978511E0,-2.678764442E0,-2.080027685E0,5.737637075E0
6.363671000E0,-5.104916303E0,-1.768235435E0,-1.729725088E0,5.672633947E0
6.373621000E0,-5.542473975E0,-1.085941383E0,-1.092404895E0,5.752532912E0
6.383572000E0,-5.975613492E0,-8.681647593E-1,-9.152991647E-1,6.107326683E0
6.393522000E0,-5.983700776E0,-6.525112599E-1,-8.732465744E-1,6.082187558E0
6.403472000E0,-5.861472918E0,-2.260089183E-1,-7.978239244E-1,5.919836807E0
6.413422000E0,-5.871632456E0,1.579566836E-2,-5.264629052E-1,5.895208256E0
6.423373000E0,-5.752749206E0,2.723194510E-1,-1.418464351E-1,5.760937573E0
6.433323000E0,-5.190533574E0,5.048181939E-1,2.676346618E-1,5.221887446E0
6.443273000E0,-5.049040310E0,8.289007062E-1,4.102019855E-1,5.133044916E0
6.453223000E0,-4.848084080E0,8.877979553E-1,3.224300160E-1,4.939237347E0
6.463174000E0,-4.206772285E0,6.233301455E-1,2.485182866E-1,4.259957143E0
6.473124000E0,-3.105629603E0,4.937049758E-1,3.231240074E-1,3.161184740E0
6.483074000E0,-2.257946178E0,1.007754169E0,4.316332734E-1,2.510019261E0
6.493024000E0,-2.331247458E0,1.357413572E0,5.271012750E-1,2.748658231E0
6.502975000E0,-3.376739265E0,7.102928603E-1,9.355357202E-1,3.575207839E0
6.512925000E0,-4.014788899E0,1.692643216E0,5.526741457E-1,4.391926647E0
6.522875000E0,-4.098520442E0,1.366721755E0,9.269105655E-1,4.418705847E0
6.532826000E0,-3.820346174E0,8.080623990E-1,1.271814867E0,4.106765490E0
6.542776000E0,-3.469151292E0,8.347163469E-1,1.290704443E0,3.794427497E0
6.552726000E0,-3.716452554E0,8.390789545E-1,1.066685771E0,3.956499919E0
6.562676000E0,-4.454351581E0,8.282423097E-1,8.010702986E-1,4.600972393E0
6.572627000E0,-5.251810055E0,8.868764341E-1,4.970829123E-1,5.349313048E0
6.582577000E0,-5.565292735E0,4.860077012E-1,2.053068513E-1,5.590244861E0
6.592527000E0,-5.225330354E0,-1.134886086E-2,3.481154457E-2,5.225458635E0
6.602477250E0,-5.337044333E0,-1.761590660E-2,-3.026078819E-1,5.345645336E0
6.612428250E0,-5.762790045E0,-2.774503827E-2,-4.980974773E-1,5.784342658E0
6.622378250E0,-5.733704824E0,8.714105487E-3,-5.518748313E-1,5.760209439E0
6.632328250E0,-5.112065109E0,-1.343707699E-1,-3.036909324E-1,5.122840361E0
6.642278250E0,-4.135864854E0,-4.002232003E-1,1.241749799E-1,4.157039347E0
6.652229250E0,-3.771450295E0,-5.775973177E-1,2.825854075E-1,3.825873822E0
6.662179250E0,-4.240254611E0,-5.404745150E-1,2.414414746E-1,4.281374295E0
6.672129250E0,-4.945373855E0,-4.675977427E-1,1.755182111E-1,4.970530842E0
6.682079250E0,-5.818769533E0,-4.699717122E-1,-4.507041134E-2,5.837892054E0
6.692030250E0,-6.927491083E0,-5.417585635E-1,-3.545623664E-1,6.957682769E0
6.701980250E0,-7.073179139E0,-1.095613262E0,-3.336369357E-1,7.165301470E0
6.711930250E0,-5.787450092E0,-1.709449283E0,1.258371972E-2,6.034646118E0
6.721881250E0,-4.474322162E0,-2.071256277E0,9.650003515E-2,4.931427139E0
6.731831250E0,-3.601862622E0,-2.511318312E0,2.089802183E-2,4.390964671E0
6.741781250E0,-3.257277433E0,-2.690268254E0,-5.531995911E-2,4.224980456E0
6.751731250E0,-3.618310840E0,-2.763731502E0,-2.775481408E-1,4.561514893E0
6.761682250E0,-4.316991130E0,-3.029256488E0,-5.285806936E-1,5.300207999E0
6.771632250E0,-5.103765571E0,-3.161564945E0,-5.186802612E-1,6.026022330E0
6.781582250E0,-5.497367384E0,-3.443090837E0,-4.503554732E-1,6.502210603E0
6.791532250E0,-5.496400255E0,-3.483106257E0,-2.701518150E-1,6.512712719E0
6.801483250E0,-5.165198758E0,-3.682303938E0,5.870604515E-3,6.343396169E0
6.811433250E0,-4.604674140E0,-4.484581102E0,2.875502783E-1,6.434063782E0
6.821383250E0,-4.079960210E0,-4.963977941E0,6.747745335E-1,6.460841507E0
6.831333250E0,-3.713193901E0,-5.146634433E0,9.327401664E-1,6.414488222E0
6.841284250E0,-3.644440293E0,-5.531060210E0,9.582019401E-1,6.692736590E0
6.851234250E0,-3.875419929E0,-6.013409894E0,7.758753041E-1,7.195968362E0
6.861184250E0,-4.221879736E0,-6.238335323E0,2.725405488E-1,7.537597393E0
6.871135250E0,-4.523282360E0,-6.711252862E0,-4.077782415E-2,8.093371431E0
6.881085250E0,-4.323835588E0,-7.401770439E0,-4.431049258E-1,8.583594923E0
6.891035250E0,-4.238720301E0,-7.321079448E0,-8.006498837E-1,8.497411036E0
6.900985250E0,-4.424499791E0,-7.167018764E0,-6.479387373E-1,8.447613922E0
6.910936250E0,-4.168658963E0,-7.527245255E0,-8.370932400E-2,8.604890815E0
6.920886250E0,-3.512680305E0,-7.701099933E0,8.523405857E-1,8.507193872E0
6.930836250E0,-2.022771749E0,-8.246013070E0,1.421927218E0,8.608728949E0
6.940786250E0,9.433190221E-1,-7.850438991E0,1.333424639E0,8.018557501E0
6.950737250E0,5.590541012E0,-6.878524160E0,1.303833196E0,8.959253564E0
6.960687250E0,1.001770012E1,-5.194996169E0,-1.136422442E-1,1.128517680E1
6.970637250E0,1.188823961E1,-4.816505022E0,-1.574382549E0,1.292314366E1
6.980588250E0,1.196524861E1,-7.420358738E0,-2.387043929E0,1.428029680E1
6.990538250E0,1.056989830E1,-6.251508515E0,-2.620931386E0,1.255680652E1
7.000488250E0,7.830781821E0,-4.068646725E0,-1.392558846E0,8.933882148E0
7.010438250E0,5.814067202E0,-3.859735358E0,3.008926012E-1,6.985089178E0
7.020389250E0,5.471026847E0,-4.245677319E0,1.211364012E0,7.030313893E0
7.030339250E0,5.914763857E0,-3.877714376E0,1.425747058E0,7.214835753E0
7.040289250E0,6.647463832E0,-3.229199981E0,9.507872321E-1,7.451208243E0
7.050239250E0,7.363748335E0,-3.063247814E0,5.486189555E-1,7.994326705E0
7.060190250E0,8.129859885E0,-2.874514019E0,1.339610262E-1,8.624117239E0
7.070140250E0,7.816980053E0,-2.470914929E0,3.861062676E-3,8.198207892E0
7.080090250E0,6.480936885E0,-2.205667393E0,2.905199330E-1,6.852146626E0
7.090041250E0,5.062491245E0,-1.878137362E0,7.150798295E-1,5.446793251E0
7.099991250E0,4.052824452E0,-1.714379363E0,1.106571383E0,4.537508442E0
7.109941250E0,3.574638571E0,-1.719210625E0,1.428677098E0,4.216022336E0
7.119891250E0,3.566710331E0,-1.500526514E0,1.485480313E0,4.144834637E0
7.129842250E0,3.540941652E0,-1.236518003E0,1.437909705E0,4.016818253E0
7.139792250E0,3.107696886E0,-9.594567525E-1,1.155473401E0,3.451587458E0
7.149742250E0,2.297968615E0,-5.607517818E-1,7.284021257E-1,2.475009490E0
7.159693250E0,1.434981565E0,-3.351024672E-1,4.579257171E-1,1.543101331E0
7.169643250E0,7.466210264E-1,-2.713415042E-1,2.966647719E-1,8.479853512E-1
7.179593250E0,4.559126669E-1,-2.199383390E-1,3.379997626E-1,6.086649919E-1
7.189543250E0,7.880953270E-1,-1.649476147E-1,3.705883420E-1,8.863620475E-1
7.199494250E0,1.145286528E0,-2.533431897E-1,2.899767266E-1,1.208284116E0
7.209444250E0,1.035291047E0,-4.421541685E-1,7.433916092E-2,1.128208390E0
7.219394250E0,6.886014444E-1,-4.610283959E-1,-2.409507470E-1,8.630042836E-1
7.229345250E0,2.502374411E-1,-4.393504286E-1,-4.049546210E-1,6.477930388E-1
7.239295250E0,-2.496100348E-1,-4.338698334E-1,-2.671205454E-1,5.673637171E-1
7.249245250E0,-6.248252785E-1,-3.531311873E-1,7.452334821E-2,7.215691190E-1
7.259195250E0,-8.405922139E-1,-2.877979079E-1,3.361979431E-1,9.499747169E-1
7.269146250E0,-8.617070943E-1,-3.231583598E-1,5.015202181E-1,1.048090154E0
7.279096250E0,-6.349433005E-1,-2.966041070E-1,4.853335172E-1,8.524527049E-1
7.289046250E0,-4.200885308E-1,-2.577929208E-1,2.373343903E-1,5.470458633E-1
7.298996250E0,-3.504248035E-1,-1.691008919E-1,-1.990801513E-2,3.896010570E-1
7.308947250E0,-4.619820768E-1,-1.130711174E-1,-1.232750934E-1,4.913341689E-1
7.318897250E0,-8.098159790E-1,-3.033360064E-2,7.371774808E-2,8.137299021E-1
7.328847250E0,-1.258389221E0,1.270409927E-1,1.676513672E-1,1.275848669E0
7.338798250E0,-1.529208276E0,-1.288784802E-2,5.396497652E-2,1.530214451E0
7.348748250E0,-1.340888171E0,-3.272174969E-1,-1.206071551E-1,1.385495747E0
7.358698250E0,-9.503310031E-1,-1.386921546E-1,-2.744257642E-1,9.988363376E-1
7.368648250E0,-7.583090258E-1,-5.773014486E-2,-3.088101697E-1,8.208100079E-1
7.378599250E0,-7.169697958E-1,-4.257556522E-1,-2.869651182E-1,8.818517690E-1
7.388549250E0,-8.446800023E-1,-6.379984707E-2,-3.337317337E-1,9.104568067E-1
7.398499250E0,-1.152591455E0,2.473500860E-1,-1.627753741E-1,1.190018886E0
7.408450250E0,-1.061360857E0,1.600447243E-1,-6.716930509E-2,1.075459390E0
7.418400250E0,-7.040199673E-1,1.463853362E-1,-2.570859924E-2,7.195371520E-1
7.428350250E0,-3.582097864E-1,-2.485607520E-1,-1.214905232E-1,4.526109209E-1
7.438300250E0,-5.969422460E-3,-2.303343961E-1,-4.632573545E-1,5.173943801E-1
7.448251250E0,8.569328427E-2,-2.724577376E-1,-6.482379685E-1,7.083706809E-1
7.458201250E0,-9.026697636E-2,-3.154222012E-1,-6.521931714E-1,7.300652196E-1
7.468151250E0,-4.722439402E-1,-9.122065723E-2,-3.259869504E-1,5.810361772E-1
7.478102250E0,-8.432743317E-1,8.215133339E-2,2.211709321E-2,8.475550754E-1
7.488052250E0,-1.002599849E0,9.029884368E-2,2.117613003E-2,1.006880711E0
7.498002250E0,-7.643714190E-1,-1.618550223E-1,-7.515192389E-2,7.849258092E-1
7.507952250E0,-1.856730705E-1,-1.908504876E-1,-2.659231818E-1,3.763157403E-1
7.517903250E0,2.672306192E-1,1.008504367E-1,-2.989957644E-1,4.134990708E-1
7.527853250E0,5.921147847E-1,-2.296330225E-1,-1.764498188E-1,6.591401838E-1
7.537803250E0,6.996105820E-1,-1.026171729E-1,-2.566535908E-1,7.522342164E-1
7.547754250E0,4.500186735E-1,6.773356140E-2,-1.805854082E-1,4.896077323E-1
7.557704250E0,-4.801791966E-2,1.523901343E-1,-4.042618722E-3,1.598274583E-1
7.567654250E0,-4.378406775E-1,1.598564440E-1,1.171429722E-1,4.806048455E-1
7.577604250E0,-5.694539005E-1,8.348625273E-2,2.221339685E-1,6.169207397E-1
7.587555250E0,-3.514445579E-1,-9.749939740E-3,1.968623024E-1,4.029430539E-1
7.597505458E0,5.435571671E-2,9.581686109E-2,1.614014246E-1,1.954119614E-1
7.607455458E0,3.725220162E-1,-1.455225796E-2,2.494005583E-1,4.485365751E-1
7.617406458E0,5.489196485E-1,-2.723077565E-1,1.511224580E-1,6.311119490E-1
7.627356458E0,4.269432217E-1,-6.030847460E-2,-1.802961172E-1,4.673588734E-1
7.637306458E0,8.859350324E-2,5.741410285E-2,-2.212522084E-1,2.451483790E-1
7.647256458E0,-1.123179960E-1,-2.635135442E-1,-1.542916489E-1,3.253623105E-1
7.657207458E0,-1.181394839E-1,-3.311845404E-1,-2.090718734E-1,4.090857926E-1
7.667157458E0,-1.342555797E-1,-1.654621696E-1,-1.939164752E-1,2.881074272E-1
7.677107458E0,-7.920170546E-2,-1.167706507E-1,-3.812326133E-2,1.461563481E-1
7.687058458E0,9.902552068E-2,-1.413918141E-1,1.430376591E-1,2.241817806E-1
7.697008458E0,2.373928624E-1,-1.036252329E-1,1.517310070E-1,3.001930354E-1
7.706958458E0,2.267450827E-1,-1.384430632E-1,2.328419745E-2,2.666870228E-1
7.716908458E0,1.878195834E-1,-1.428389999E-1,-8.174246684E-2,2.497218587E-1
7.726859458E0,1.397519624E-1,-1.124545285E-1,-1.055495515E-1,2.081281812E-1
7.736809458E0,4.790799201E-2,-1.864267766E-1,-1.169770575E-1,2.252415386E-1
7.746759458E0,4.063171685E-2,-1.845080128E-1,-2.526997036E-1,3.155174851E-1
7.756710458E0,5.829381645E-2,-2.025001878E-1,-3.275943500E-1,3.895157933E-1
7.766660458E0,1.069128299E-1,-4.089361364E-1,-3.397460335E-1,5.422974130E-1
7.776610458E0,1.760011911E-1,-1.575149265E-1,-2.814394994E-1,3.674174236E-1
7.786561458E0,2.421320307E-1,-2.858352900E-2,-6.612206876E-2,2.526203998E-1
7.796511458E0,2.655799502E-1,-1.398504880E-1,1.656538121E-1,3.428294830E-1
7.806461458E0,2.775556326E-1,-2.084392047E-1,1.980047022E-1,3.996121786E-1
7.816411458E0,2.380857575E-1,-2.841433981E-1,1.592288916E-1,4.034552497E-1
7.826362458E0,1.995116758E-1,-3.276437590E-1,2.118723974E-2,3.841929733E-1
7.836312458E0,1.683091789E-1,-3.002437064E-1,-7.488309816E-2,3.522523830E-1
7.846262458E0,2.502625841E-1,-2.371882099E-1,9.378495365E-3,3.449312454E-1
7.856213458E0,5.850069094E-1,-3.068893594E-1,2.517851990E-1,7.069723823E-1
7.866163458E0,1.232366772E0,-1.961594671E-1,3.817822516E-1,1.304976661E0
7.876113458E0,1.550878057E0,-2.814899316E-1,2.337861536E-1,1.593460165E0
7.886063458E0,1.452636064E0,-5.138974580E-1,2.294388950E-2,1.541028408E0
7.896014458E0,1.429814381E0,-4.742124054E-1,-4.518845201E-2,1.507079482E0
7.905964458E0,1.743634445E0,-5.258702168E-1,9.925648570E-5,1.821208547E0
7.915914458E0,1.940603752E0,-6.447218916E-1,-1.701715171E-2,2.044969149E0
7.925865458E0,2.196044630E0,-6.861678332E-1,3.979688063E-2,2.301091503E0
7.935815458E0,2.855340999E0,-7.817242008E-1,1.297258879E-1,2.963257287E0
7.945765458E0,3.722229896E0,-9.558759177E-1,1.989497584E-1,3.848152176E0
7.955715458E0,4.489996208E0,-1.171180338E0,3.390813513E-1,4.652602013E0
7.965666458E0,4.998672979E0,-1.450545684E0,5.921340805E-1,5.238457512E0
7.975616458E0,5.205846262E0,-1.653593756E0,9.104974312E-1,5.537527714E0
7.985566458E0,5.512315791E0,-1.642062462E0,1.126966032E0,5.861061930E0
7.995517458E0,5.624559528E0,-1.733005376E0,1.054140569E0,5.979146248E0
8.005467458E0,5.532581071E0,-2.014775682E0,1.019318208E0,5.975599047E0
8.015417458E0,5.243965430E0,-2.266416455E0,9.708974147E-1,5.794692293E0
8.025368458E0,4.985547734E0,-2.467241415E0,9.113938093E-1,5.636808059E0
8.035318458E0,4.997797067E0,-2.543935250E0,1.043320955E0,5.704217798E0
8.045268458E0,5.247901776E0,-2.745659512E0,1.319187984E0,6.067897176E0
8.055219458E0,5.761069794E0,-3.227543172E0,1.591927850E0,6.792730995E0
8.065169458E0,5.973252971E0,-3.587539868E0,2.056072812E0,7.264821317E0
8.075119458E0,5.772650204E0,-3.910618413E0,2.382442170E0,7.368341567E0
8.085069458E0,5.256082615E0,-4.219905131E0,2.385835310E0,7.150259708E0
8.095020458E0,4.673994051E0,-4.452343063E0,2.271533353E0,6.843204141E0
8.104970458E0,4.276996760E0,-4.789127482E0,2.046927767E0,6.739314253E0
8.114920458E0,3.836454669E0,-5.386829866E0,1.519838113E0,6.785737124E0
8.124871458E0,4.019908428E0,-6.158196893E0,9.287009829E-1,7.412525768E0
8.134821458E0,3.995804744E0,-6.626408594E0,1.737067437E-1,7.739891500E0
8.144771458E0,3.387074803E0,-7.028706386E0,-1.298929812E-1,7.803323739E0
8.154721458E0,3.369198988E0,-7.395132095E0,6.395215790E-2,8.126719535E0
8.164672458E0,3.228671685E0,-8.060913611E0,3.237217391E-1,8.689501991E0
8.174622458E0,2.802527193E0,-8.648768114E0,8.330791265E-1,9.129587581E0
8.184572458E0,2.108617500E0,-8.494327362E0,8.901385957E-1,8.797284343E0
8.194523458E0,5.888206096E-1,-8.196719872E0,8.887884736E-1,8.265765018E0
8.204473458E0,-1.005296146E0,-7.482909327E0,1.024925687E0,7.619384818E0
8.214423458E0,-1.480133472E0,-6.670612375E0,5.128721488E-1,6.852072853E0
8.224374458E0,-1.065868988E0,-6.646801343E0,-1.851327878E-1,6.734264543E0
8.234324458E0,-1.004533303E0,-6.779722003E0,-9.198237401E-1,6.915185703E0
8.244274458E0,-1.506610103E0,-6.604452884E0,-1.759048290E0,6.998780092E0
8.254225458E0,-1.541426472E0,-6.532038041E0,-2.172975025E0,7.054455117E0
8.264175458E0,-1.819305894E0,-6.170267885E0,-1.560745234E0,6.619517006E0
8.274125458E0,-2.749325132E0,-5.207550725E0,-4.096470847E-1,5.902980939E0
8.284075458E0,-3.707597238E0,-3.845271685E0,7.326357291E-1,5.391581097E0
8.294026458E0,-4.793789467E0,-2.625585769E0,1.392268825E0,5.640259796E0
8.303976458E0,-5.341090021E0,-2.165540875E0,1.346365843E0,5.918573382E0
8.313926458E0,-5.727250083E0,-1.814617304E0,9.180849244E-1,6.077590756E0
8.323877458E0,-6.080352327E0,-1.767806250E0,4.734187920E-1,6.349799108E0
8.333827458E0,-6.316582178E0,-1.554679917E0,4.186027533E-1,6.518548022E0
8.343777458E0,-6.638450934E0,-9.550701714E-1,4.440322942E-1,6.721484547E0
8.353728458E0,-7.267292665E0,-4.200704044E-1,6.105181651E-1,7.304980100E0
8.363678458E0,-7.908878987E0,1.471761721E-1,8.454261070E-1,7.955298421E0
8.373628458E0,-8.469806478E0,5.660525751E-1,1.044863523E0,8.552764294E0
8.383578458E0,-9.749711698E0,1.090492855E0,1.724699991E0,9.960955924E0
8.393529458E0,-1.011074335E1,1.408360947E0,2.237699756E0,1.045073738E1
8.403479458E0,-1.001077000E1,1.304477559E0,2.726212842E0,1.045702702E1
8.413429458E0,-9.707812305E0,1.303676491E0,2.946088032E0,1.022842250E1
8.423380458E0,-9.224890180E0,1.186928644E0,2.850674336E0,9.727987593E0
8.433330458E0,-8.869595815E0,1.105368757E0,2.445969830E0,9.266840800E0
8.443280458E0,-8.439050124E0,7.766377079E-1,1.994041748E0,8.706143556E0
8.453231458E0,-8.116622958E0,4.671276265E-1,1.438703026E0,8.256369836E0
8.463181458E0,-8.039598756E0,4.195505869E-1,7.976952857E-1,8.089962214E0
8.473131458E0,-8.030270108E0,4.440422344E-1,4.119648479E-1,8.053081804E0
8.483082458E0,-8.076175429E0,6.673210877E-1,2.173987471E-1,8.106613917E0
8.493032458E0,-8.077668808E0,8.423650897E-1,1.355086380E-1,8.122602717E0
8.502982458E0,-8.304441372E0,1.034443785E0,3.071593545E-1,8.374256225E0
8.512932458E0,-7.551749182E0,5.218131262E-1,8.354010558E-1,7.615713989E0
8.522883458E0,-5.523395095E0,-1.899409533E-1,1.566573738E0,5.744399379E0
8.532833458E0,-4.525599319E0,-6.474253517E-1,1.500221289E0,4.811535379E0
8.542783458E0,-4.904680157E0,-6.864110774E-1,1.018713021E0,5.056166911E0
8.552734458E0,-5.430828409E0,-5.926416188E-1,5.039965139E-1,5.486267746E0
8.562684458E0,-5.679200588E0,-6.539169306E-1,2.343176655E-1,5.721523525E0
8.572634458E0,-5.859363828E0,-6.802709162E-1,1.483543861E-1,5.900586582E0
8.582585458E0,-6.196404355E0,-5.235643673E-1,1.801930600E-1,6.221094446E0
8.592535458E0,-6.540267413E0,-7.980379325E-1,3.484807505E-1,6.597984632E0
8.602485500E0,-6.425122288E0,-1.211137871E0,8.114673789E-1,6.588439168E0
8.612436500E0,-5.494343789E0,-2.046678675E0,1.770357536E0,6.124612076E0
8.622386500E0,-3.673206255E0,-2.970676743E0,2.484969589E0,5.337830866E0
8.632336500E0,-1.963431574E0,-3.388021760E0,2.402854800E0,4.594286254E0
8.642287500E0,-1.622352083E0,-3.272228764E0,1.759780946E0,4.054175174E0
8.652237500E0,-1.728056878E0,-3.519595222E0,8.106748619E-1,4.003863738E0
8.662187500E0,-1.975989347E0,-3.695673596E0,1.425392570E-1,4.193191466E0
8.672137500E0,-2.448578857E0,-3.530652307E0,-3.704732249E-1,4.312574004E0
8.682088500E0,-3.268519875E0,-3.463974752E0,-5.895203020E-1,4.798945451E0
8.692038500E0,-3.953320629E0,-3.780221996E0,-4.383213186E-1,5.487344340E0
8.701988500E0,-4.246340393E0,-4.152191450E0,1.174729013E-1,5.940193638E0
8.711939500E0,-3.446563791E0,-4.548405215E0,1.078124825E0,5.807679838E0
8.721889500E0,-1.686535215E0,-4.991061074E0,1.936366859E0,5.612896604E0
8.731839500E0,9.831011385E-2,-5.273050650E0,2.241068190E0,5.730367761E0
8.741790500E0,1.207723974E0,-5.389480408E0,1.988346852E0,5.870146461E0
8.751740500E0,1.100182569E0,-5.269283289E0,1.551013128E0,5.601909477E0
8.761690500E0,-1.068169355E-2,-5.125844073E0,5.261108297E-1,5.152784117E0
8.771641500E0,-1.771123083E0,-4.693227298E0,-5.622004294E-1,5.047705297E0
8.781591500E0,-3.866221382E0,-4.372716265E0,-1.471788619E0,6.019508040E0
8.791541500E0,-5.657516774E0,-4.335333846E0,-1.578855815E0,7.300369942E0
8.801492500E0,-6.947322500E0,-4.428130912E0,-8.213905424E-1,8.279391023E0
8.811442500E0,-7.027169153E0,-4.941877804E0,1.723876119E-1,8.592611944E0
8.821392500E0,-4.895764323E0,-5.915155036E0,1.318204483E0,7.790714374E0
8.831343500E0,-6.457255661E-1,-6.886496254E0,2.133187062E0,7.238182037E0
8.841293500E0,3.314880694E0,-6.955717347E0,1.927104869E0,7.942554438E0
8.851243500E0,5.090335686E0,-6.411333384E0,9.055571917E-1,8.236306635E0
8.861194500E0,4.260325179E0,-4.966858864E0,-8.011755484E-1,6.592567016E0
8.871144500E0,2.359947347E0,-3.920713631E0,-3.448176745E0,5.729857740E0
8.881094500E0,3.896631289E-1,-4.403307728E0,-3.528037432E0,5.655793880E0
8.891044500E0,-1.209339852E0,-4.682753180E0,-2.174078541E0,5.302574632E0
8.900995500E0,-4.149786490E-1,-4.490522457E0,-6.838442228E-1,4.561210600E0
8.910945500E0,4.038174838E0,-4.977951032E0,8.641897490E-1,6.467895826E0
8.920895500E0,9.307530048E0,-5.407831310E0,1.194193810E0,1.083055188E1
8.930846500E0,1.178198050E1,-5.337745414E0,1.846094620E-1,1.293602223E1
8.940796500E0,1.093439735E1,-4.876981604E0,-9.303933133E-1,1.200881454E1
8.950746500E0,8.460007714E0,-3.674723023E0,-2.196438147E0,9.481543142E0
8.960697500E0,5.516749150E0,-3.240069662E0,-1.895617613E0,6.672775939E0
8.970647500E0,3.390518521E0,-2.788954636E0,-7.283188029E-1,4.450205847E0
8.980597500E0,2.286382357E0,-2.341405534E0,6.821518193E-1,3.342911196E0
8.990548500E0,2.878035797E0,-2.341615741E0,1.608267310E0,4.043856831E0
9.000498500E0,4.899797148E0,-2.356985732E0,1.574281100E0,5.660543685E0
9.010448500E0,6.994814755E0,-2.245842442E0,9.498785748E-1,7.407665694E0
9.020399500E0,7.872385930E0,-2.205396667E0,3.297741920E-1,8.182113767E0
9.030349500E0,7.415537708E0,-2.348178071E0,3.167904496E-2,7.778505211E0
9.040299500E0,5.734510571E0,-1.583337121E0,-2.007518703E-1,5.952467492E0
9.050250500E0,3.756395177E0,-1.266709516E0,1.582373500E-2,3.964253790E0
9.060200500E0,2.128965372E0,-8.429410404E-1,4.781681930E-1,2.339163947E0
9.070150500E0,1.331344346E0,-3.671212354E-1,1.028972984E0,1.722219838E0
9.080101500E0,1.275629151E0,-6.655739397E-2,1.480186390E0,1.955149960E0
9.090051500E0,1.538772567E0,2.238837478E-1,1.542686693E0,2.190394297E0
9.100001500E0,1.642848328E0,2.624744940E-1,1.434864475E0,2.196970539E0
9.109952500E0,1.703572247E0,1.845612225E-1,1.309358230E0,2.156534308E0
9.119902500E0,1.966266596E0,1.647382843E-1,1.050277460E0,2.235268613E0
9.129852500E0,2.013057770E0,4.980190516E-2,8.283786960E-1,2.177405125E0
9.139803500E0,1.570536981E0,-1.209072635E-1,5.508246714E-1,1.668715912E0
9.149753500E0,8.521504050E-1,3.075869322E-2,5.055748236E-1,9.913184717E-1
9.159703500E0,3.093475288E-1,2.944874150E-1,5.161318253E-1,6.699334237E-1
9.169654500E0,-6.514558375E-2,4.207440037E-1,6.380836938E-1,7.670855650E-1
9.179604500E0,-3.541015327E-1,3.434221780E-1,6.961582397E-1,8.532074675E-1
9.189554500E0,-5.372895366E-1,3.100290218E-1,5.720429014E-1,8.438193654E-1
9.199505500E0,-6.088261271E-1,3.514582989E-1,3.790654890E-1,7.986756750E-1
9.209455500E0,-4.749529552E-1,3.086537567E-1,3.259756945E-1,6.535347004E-1
9.219405500E0,-2.075767404E-1,1.365447646E-1,4.103381525E-1,4.796977958E-1
9.229356500E0,-8.872214198E-2,9.351071924E-2,3.913675922E-1,4.120491055E-1
9.239306500E0,-2.544667321E-1,7.661782086E-2,5.399494350E-2,2.711808661E-1
9.249256500E0,-6.151896518E-1,-3.967628181E-2,-1.117993480E-1,6.265234308E-1
9.259207500E0,-9.567956847E-1,-7.510719270E-2,-1.600347841E-1,9.729903416E-1
9.269157500E0,-1.090868831E0,5.006035209E-2,-2.293915325E-1,1.115850044E0
9.279107500E0,-1.084015895E0,7.882017463E-2,-3.815056783E-1,1.151889605E0
9.289058500E0,-1.138610178E0,-3.297741920E-2,-5.412311447E-1,1.261131158E0
9.299008500E0,-1.155515063E0,-2.328709182E-1,-4.852225663E-1,1.274709717E0
9.308958500E0,-1.100162981E0,-3.000887552E-1,-2.488534051E-1,1.167193155E0
9.318909500E0,-8.493460804E-1,-1.594307667E-1,-8.379293919E-2,8.682327973E-1
9.328859500E0,-4.854487073E-1,-9.281080753E-2,-1.403536409E-1,5.137834544E-1
9.338809500E0,-2.463361788E-1,-1.525825077E-1,-2.563811105E-1,3.869033581E-1
9.348760500E0,-2.683363277E-1,-1.361246422E-1,-3.246495460E-1,4.426416504E-1
9.358710500E0,-4.227975458E-1,-1.659001261E-2,-3.719722317E-1,5.633793876E-1
9.368660500E0,-6.030870849E-1,-5.091521502E-2,-3.430736840E-1,6.957053570E-1
9.378611500E0,-7.675113738E-1,-2.405459735E-1,-4.003992015E-1,8.984740368E-1
9.388561500E0,-7.415216696E-1,-3.075451246E-1,-5.699848276E-1,9.845410575E-1
9.398511500E0,-5.935292262E-1,-3.414481580E-1,-6.682046020E-1,9.567450951E-1
9.408462500E0,-3.417773563E-1,-3.876844311E-1,-5.260962117E-1,7.374877648E-1
9.418412500E0,2.780234098E-2,-3.301346728E-1,-2.301657039E-1,4.034081353E-1
9.428362500E0,3.670420057E-1,-2.295005831E-1,5.404581428E-2,4.362468356E-1
9.438313500E0,3.109122437E-1,-1.186411750E-1,2.188004708E-1,3.982659887E-1
9.448263500E0,3.992771208E-2,2.097074658E-2,1.494717890E-1,1.561275444E-1
9.458213500E0,-1.574544078E-1,-1.203693196E-1,-3.370452046E-2,2.010389473E-1
9.468164500E0,-2.111757016E-1,-3.119898856E-1,-2.023236018E-1,4.276303375E-1
9.478114500E0,-1.933399397E-1,-2.089321250E-1,-3.702689378E-1,4.670460913E-1
9.488064500E0,-2.219988978E-1,-1.673818105E-1,-4.241225249E-1,5.071292707E-1
9.498015500E0,-3.181329703E-1,-1.684609142E-1,-3.340192705E-1,4.910769181E-1
9.507965500E0,-3.440279496E-1,-8.592015624E-2,-1.252697249E-1,3.760718114E-1
9.517915500E0,-1.553464866E-1,-5.418936342E-2,1.127313942E-1,1.994426866E-1
9.527866500E0,2.041982192E-1,1.580765516E-2,1.138720398E-1,2.343365872E-1
9.537816500E0,5.716974771E-1,2.707465500E-2,2.656901702E-2,5.729545837E-1
9.547766500E0,7.269007069E-1,-3.887930632E-2,-4.610178709E-2,7.293981169E-1
9.557717500E0,5.425882834E-1,-7.677715749E-2,-5.988016605E-2,5.512553052E-1
9.567667500E0,2.374788165E-1,-3.776658118E-2,-1.370869477E-1,2.767947510E-1
9.577617500E0,-1.039430290E-1,-1.750656366E-2,-1.878214838E-1,2.153776748E-1
9.587568500E0,-3.833376110E-1,2.797015607E-3,-2.100870962E-1,4.371408643E-1
9.597518083E0,-3.312728333E-1,9.150015414E-3,-1.911215061E-1,3.825609010E-1
9.607468083E0,2.604349852E-3,-6.081104279E-5,-1.765196930E-1,1.765389145E-1
9.617419083E0,4.187290531E-1,4.843073308E-2,-2.585143210E-1,4.944787255E-1
9.627369083E0,5.544411743E-1,-1.811789006E-2,-3.236610742E-1,6.422536606E-1
9.637319083E0,4.398614752E-1,-5.047228843E-2,-2.713950062E-1,5.193080191E-1
9.647270083E0,3.068607080E-1,3.637552857E-3,-2.499522431E-1,3.957939486E-1
9.657220083E0,2.334793210E-1,2.203961760E-2,-5.157770455E-2,2.401220475E-1
9.667170083E0,3.238258195E-1,1.054782155E-1,2.112989317E-1,4.007942787E-1
9.677121083E0,4.453426552E-1,4.369565785E-2,2.047798710E-1,4.921119655E-1
9.687071083E0,6.715550566E-1,-1.103436837E-1,4.641110480E-2,6.821406843E-1
9.697021083E0,1.064811299E0,-2.746592143E-1,-2.805220713E-1,1.134880355E0
9.706972083E0,1.400615140E0,-3.098012727E-1,-4.727497244E-1,1.510361514E0
9.716922083E0,1.643539469E0,-3.897131225E-1,-5.678706206E-1,1.782014406E0
9.726872083E0,1.558874710E0,-4.561968416E-1,-5.259617257E-1,1.707290735E0
9.736823083E0,1.547924629E0,-4.185957366E-1,-1.834622383E-1,1.613986196E0
9.746773083E0,2.113781322E0,-4.766851929E-1,2.345319660E-1,2.179519556E0
9.756724083E0,2.786394140E0,-6.276889524E-1,5.232999270E-1,2.903761102E0
9.766674083E0,3.535109639E0,-8.593933511E-1,6.027713352E-1,3.687667335E0
9.776624083E0,4.306342766E0,-1.079096924E0,4.905796391E-1,4.466509439E0
9.786574083E0,5.017339631E0,-1.449354314E0,2.071351294E-1,5.226588740E0
9.796525083E0,5.447196520E0,-1.793105690E0,-1.178681731E-2,5.734746452E0
9.806475083E0,5.619159624E0,-2.060652936E0,-1.155479980E-1,5.986200526E0
9.816426083E0,5.622788406E0,-2.400681975E0,-2.526973647E-1,6.119058699E0
9.826376083E0,5.666558324E0,-2.760175225E0,-1.769390845E-1,6.305533914E0
9.836326083E0,5.981319789E0,-3.061324373E0,1.677362980E-1,6.721311539E0
9.846277083E0,6.289113128E0,-3.216126484E0,5.599895972E-1,7.085901626E0
9.856227083E0,6.454919114E0,-3.424373315E0,8.621385457E-1,7.357689599E0
9.866177083E0,6.347826775E0,-3.832499027E0,1.217168105E0,7.514283183E0
9.876128083E0,5.743436930E0,-4.242359024E0,1.519614165E0,7.300267465E0
9.886078083E0,5.143476936E0,-4.511596992E0,1.675775169E0,7.044010564E0
9.896028083E0,4.674389908E0,-4.507220351E0,1.590569542E0,6.685422034E0
9.905979083E0,4.084811060E0,-4.686457976E0,1.451676536E0,6.384037478E0
9.915929083E0,3.653975347E0,-5.204035964E0,1.389449297E0,6.508770660E0
9.925879083E0,3.269550154E0,-5.530851465E0,1.288815207E0,6.552962748E0
9.935830083E0,3.075465864E0,-5.693273667E0,1.251531606E0,6.590765258E0
9.945780083E0,3.071010870E0,-6.129105826E0,1.378278192E0,6.992617304E0
9.955730083E0,3.238863382E0,-6.652035186E0,1.576914539E0,7.564817749E0
9.965681083E0,3.728324448E0,-7.164136087E0,1.700679629E0,8.253336311E0
9.975631083E0,3.799015532E0,-7.649242147E0,1.754757019E0,8.719093796E0
9.985581083E0,3.116315097E0,-7.969131036E0,1.263326610E0,8.649535443E0
9.995532083E0,1.537372159E0,-7.995064023E0,3.552686369E-1,8.149280808E0
1.000548208E1,-4.040706682E-1,-7.509716472E0,-2.432318920E-1,7.524511702E0
1.001543208E1,-8.123925546E-1,-7.335891030E0,-4.076468253E-1,7.391985849E0
1.002538308E1,2.174026939E-1,-7.861188512E0,-6.311777393E-2,7.864447381E0
1.003533308E1,1.198655528E0,-8.102004334E0,2.532873487E-1,8.194107870E0
1.004528308E1,7.520098934E-1,-7.900285919E0,4.235202616E-1,7.947289217E0
1.005523408E1,-6.231136523E-2,-7.719438556E0,1.764514267E-1,7.721706381E0
1.006518408E1,-1.662165189E0,-7.507897403E0,-9.219474488E-1,7.744759753E0
1.007513408E1,-3.407839728E0,-6.852032765E0,-1.774270931E0,7.855683418E0
1.008508508E1,-4.073657204E0,-6.154639447E0,-2.289049273E0,7.727484475E0
1.009503508E1,-3.680338104E0,-5.844314849E0,-2.335303672E0,7.290716553E0
1.010498608E1,-3.309619954E0,-5.401155544E0,-2.111219072E0,6.677073567E0
1.011493608E1,-3.463656664E0,-4.967896745E0,-1.607760356E0,6.265924426E0
1.012488608E1,-4.369047137E0,-4.356172737E0,-3.376490758E-1,6.178901254E0
1.013483708E1,-4.718800680E0,-3.401965615E0,1.130971229E0,5.926174637E0
1.014478708E1,-5.162962782E0,-2.318442641E0,2.047135489E0,6.018481925E0
1.015473708E1,-5.191876679E0,-1.598784880E0,2.400637536E0,5.939255603E0
1.016468808E1,-5.246277419E0,-1.454470920E0,1.355534277E0,5.610381947E0
1.017463808E1,-7.595709718E0,-8.669701731E-1,1.497794110E0,7.790367809E0
1.018458808E1,-8.583405599E0,-8.341462433E-2,5.532888342E-1,8.601624161E0
1.019453908E1,-8.721339077E0,-3.098965824E-2,7.166730496E-1,8.750790588E0
1.020448908E1,-8.392258950E0,2.559671277E-1,1.408947130E0,8.513557510E0
1.021443908E1,-7.791164596E0,3.948016620E-1,2.519653518E0,8.197973406E0
1.022439008E1,-7.095074038E0,8.396443802E-1,3.565223092E0,7.984728798E0
1.023434008E1,-7.451256595E0,1.131882371E0,3.815923048E0,8.447700945E0
1.024429008E1,-8.201432728E0,1.281220259E0,3.469779283E0,8.996910160E0
1.025424108E1,-8.621416594E0,1.398340573E0,3.028405426E0,9.244210073E0
1.026419108E1,-8.443127972E0,1.284254379E0,2.883681284E0,9.013952352E0
1.027414108E1,-8.126437510E0,1.197523214E0,2.700118766E0,8.646599898E0
1.028409208E1,-7.734006309E0,1.059103832E0,2.425434993E0,8.174306663E0
1.029404208E1,-7.751488899E0,1.093939204E0,2.034760003E0,8.088419586E0
1.030399208E1,-8.340511676E0,1.058662367E0,1.700997426E0,8.577779041E0
1.031394308E1,-9.014985663E0,1.105457050E0,1.691562066E0,9.238689518E0
1.032389308E1,-8.227175095E0,8.500196797E-1,1.902606790E0,8.486981566E0
1.033384308E1,-6.866380663E0,4.562126291E-1,2.115553029E0,7.199366499E0
1.034379408E1,-6.512481444E0,4.390060276E-1,2.011477560E0,6.830167115E0
1.035374408E1,-6.703881862E0,6.367430735E-1,1.672549552E0,6.938652302E0
1.036369408E1,-7.090150098E0,7.102530992E-1,1.393302028E0,7.260577003E0
1.037364508E1,-7.621679542E0,4.828595603E-1,1.321867763E0,7.750515259E0
1.038359508E1,-8.321484836E0,4.620703697E-1,1.110350877E0,8.407942553E0
1.039354508E1,-8.740096360E0,1.254789090E-1,1.036140355E0,8.802193828E0
1.040349608E1,-8.324672738E0,-4.720819724E-1,1.072169436E0,8.406698810E0
1.041344608E1,-6.534942938E0,-1.590045632E0,1.342377457E0,6.858257909E0
1.042339708E1,-4.259455113E0,-2.423413610E0,1.438614879E0,5.107397004E0
1.043334708E1,-3.193439579E0,-2.588227909E0,1.061174331E0,4.245358762E0
1.044329708E1,-3.085725096E0,-2.454389820E0,6.255941874E-1,3.992129362E0
1.045324808E1,-3.584890787E0,-2.262631552E0,4.712310563E-1,4.265325568E0
1.046319808E1,-4.487057982E0,-2.047138851E0,6.504903160E-1,4.974696419E0
1.047314808E1,-5.296150076E0,-1.935589179E0,8.356459080E-1,5.700352198E0
1.048309908E1,-5.639362924E0,-2.085750355E0,1.068688003E0,6.106952004E0
1.049304908E1,-5.417454658E0,-2.464716588E0,1.366723509E0,6.106682894E0
1.050299908E1,-4.718025924E0,-3.330854702E0,1.666530721E0,6.010963842E0
1.051295008E1,-3.718991123E0,-4.179069346E0,2.040677824E0,5.954820027E0
1.052290008E1,-2.107864817E0,-4.894519451E0,2.670346790E0,5.960718641E0
1.053285008E1,1.136777660E-1,-6.067730527E0,2.971076108E0,6.757038524E0
1.054280108E1,1.687544444E0,-6.150480908E0,1.977348970E0,6.677284672E0
1.055275108E1,2.106169417E0,-6.577427638E0,6.891762257E-1,6.940710901E0
1.056270108E1,1.342382427E0,-6.095970824E0,-1.102286689E0,6.338602907E0
1.057265208E1,-2.057459772E-1,-4.665895073E0,-2.435563540E0,5.267340695E0
1.058260208E1,-1.764935559E0,-4.123389820E0,-2.471870656E0,5.121277739E0
1.059255208E1,-2.772682419E0,-4.213432848E0,-1.801248230E0,5.355864015E0
1.060250746E1,-3.311515621E0,-4.331531401E0,-7.642702621E-1,5.505670624E0
1.061245746E1,-3.565069603E0,-4.865640637E0,5.059140352E-1,6.053109044E0
1.062240846E1,-3.116562434E0,-5.089453926E0,1.408103085E0,6.131741757E0
1.063235846E1,-1.575646278E0,-5.962222783E0,2.228510125E0,6.557211228E0
1.064230846E1,3.259840268E-1,-6.341380219E0,2.027851810E0,6.665699636E0
1.065225946E1,1.560911880E0,-5.641187840E0,3.994261883E-1,5.866769760E0
1.066220946E1,1.478127585E0,-5.580452811E0,-1.183412640E0,5.892943255E0
1.067215946E1,8.321792400E-1,-5.968262957E0,-2.745201675E0,6.621843946E0
1.068211046E1,3.257992548E-1,-5.610049662E0,-4.038804583E0,6.920313925E0
1.069206046E1,-1.662082744E-1,-5.188059032E0,-3.626636106E0,6.332145857E0
1.070201046E1,-3.111999267E-1,-4.809587474E0,-2.204759320E0,5.299994408E0
1.071196146E1,6.600261015E-1,-4.802961994E0,-5.177919960E-1,4.875672971E0
1.072191146E1,2.717710991E0,-4.455501144E0,8.947870591E-1,5.295100316E0
1.073186146E1,4.245301927E0,-3.605168054E0,1.275236219E0,5.713672423E0
1.074181246E1,4.845860676E0,-3.140509121E0,5.026412024E-1,5.796361912E0
1.075176246E1,4.995107347E0,-3.288735161E0,-8.957647866E-1,6.047253172E0
1.076171246E1,5.071557938E0,-3.728718843E0,-1.740949842E0,6.531075752E0
1.077166346E1,5.012365404E0,-3.653368114E0,-2.079120782E0,6.541685467E0
1.078161346E1,4.619841233E0,-3.077545719E0,-2.074861670E0,5.926151501E0
1.079156446E1,4.038901647E0,-2.760483958E0,-1.448878058E0,5.102180497E0
1.080151446E1,3.994887316E0,-2.805827946E0,-2.160744989E-1,4.886561502E0
1.081146446E1,4.712522525E0,-2.771829311E0,3.784920233E-1,5.480343282E0
1.082141546E1,4.914596450E0,-2.432261910E0,1.821359436E-1,5.486559010E0
1.083136546E1,4.566806987E0,-1.926366659E0,-9.761224866E-2,4.957433077E0
1.084131546E1,4.105818937E0,-1.586691669E0,-1.188154221E-1,4.403346080E0
1.085126646E1,3.753749896E0,-1.248869077E0,3.018970066E-1,3.967550133E0
1.086121646E1,3.675653315E0,-9.995888248E-1,6.951830703E-1,3.872064644E0
1.087116646E1,3.609865122E0,-9.391686684E-1,9.866319796E-1,3.858316556E0
1.088111746E1,3.439411769E0,-9.151257947E-1,1.114106543E0,3.729375541E0
1.089106746E1,3.044470358E0,-9.090271488E-1,1.087998433E0,3.358403000E0
1.090101746E1,2.709446536E0,-9.630615610E-1,1.062876894E0,3.065663940E0
1.091096846E1,2.809672490E0,-7.819534117E-1,1.107023957E0,3.119489170E0
1.092091846E1,3.017684264E0,-4.102979529E-1,1.242684184E0,3.289228892E0
1.093086946E1,2.843770528E0,-1.238890511E-1,1.373020375E0,3.160310786E0
1.094081946E1,2.297927685E0,8.778424859E-3,1.188274527E0,2.586995372E0
1.095076946E1,1.649433462E0,6.712632805E-2,8.286887446E-1,1.847122553E0
1.096072046E1,9.396481401E-1,2.669517070E-2,7.525805086E-1,1.204171367E0
1.097067046E1,3.528736174E-1,1.303616264E-1,7.804919001E-1,8.664188073E-1
1.098062046E1,-8.544185400E-2,2.282665282E-1,8.710228783E-1,9.044814939E-1
1.099057146E1,-2.709693289E-1,2.887390172E-1,8.937684010E-1,9.775564188E-1
1.100052146E1,-8.330060363E-2,1.150278881E-1,6.523036838E-1,6.675855761E-1
1.101047146E1,2.692403072E-1,-1.384053487E-1,3.244076174E-1,4.437191520E-1
1.102042246E1,4.302773041E-1,-3.997536689E-2,3.501254261E-2,4.335463833E-1
1.103037246E1,3.452026552E-1,1.385869047E-1,2.195190936E-2,3.726299634E-1
1.104032246E1,9.372092664E-2,1.123600960E-1,2.009091604E-1,2.485415337E-1
1.105027346E1,-1.846392828E-1,1.923929831E-1,2.389545076E-1,3.580586284E-1
1.106022346E1,-5.190620112E-1,1.947444409E-1,1.303198189E-1,5.695033134E-1
1.107017346E1,-9.406322265E-1,4.216076374E-2,1.317371839E-1,9.507477063E-1
1.108012446E1,-9.920935714E-1,1.082641214E-2,1.912342112E-1,1.010414464E0
1.109007446E1,-6.490695888E-1,3.274089932E-2,1.964676154E-1,6.789424287E-1
1.110002546E1,-2.643420947E-1,3.845976859E-2,1.053881684E-1,2.871629552E-1
1.110997546E1,-8.950917721E-2,-1.072233170E-2,-1.277616620E-1,1.563646491E-1
1.111992546E1,-3.209197533E-1,-9.691292167E-2,-2.955589172E-1,4.469190934E-1
1.112987646E1,-6.147464329E-1,-8.028519452E-3,-4.785048464E-1,7.790664426E-1
1.113982646E1,-7.509374410E-1,3.973504633E-2,-4.651340184E-1,8.842146624E-1
1.114977646E1,-7.526038975E-1,-3.022659659E-2,-2.655933988E-1,7.986652159E-1
1.115972746E1,-5.393705606E-1,-5.613473207E-2,5.330555677E-2,5.448974144E-1
1.116967746E1,6.774993360E-2,-5.711852610E-2,5.339136466E-2,1.034563548E-1
1.117962746E1,5.589581484E-1,-2.353311342E-1,-1.355574623E-2,6.066289744E-1
1.118957846E1,6.749978971E-1,-3.518433380E-1,9.704331458E-3,7.612555876E-1
1.119952846E1,6.044711208E-1,-2.745840776E-1,-2.407547191E-2,6.643503443E-1
1.120947846E1,3.621490556E-1,-2.643099350E-1,-6.915808931E-2,4.536458106E-1
1.121942946E1,1.258320808E-3,-2.625005141E-1,-5.371559277E-2,2.679430316E-1
1.122937946E1,-3.225300765E-1,-1.647862315E-1,-1.101030707E-3,3.621896804E-1
1.123933046E1,-5.573700446E-1,-7.324193090E-2,-1.241998306E-1,5.757181124E-1
1.124928046E1,-6.625099987E-1,-1.707214478E-1,-2.912533200E-1,7.435682938E-1
1.125923046E1,-5.104145640E-1,-2.595535174E-1,-2.923482111E-1,6.429296479E-1
1.126918146E1,-1.252929676E-1,-1.265688300E-1,-2.604765004E-1,3.155408115E-1
1.127913146E1,9.181356490E-2,-8.455629319E-2,-3.655018491E-1,3.862267457E-1
1.128908146E1,-1.213297248E-3,-1.574836439E-1,-4.412007800E-1,4.684663258E-1
1.129903246E1,-2.649350023E-1,-7.173334926E-2,-2.859539884E-1,3.963658819E-1
1.130898246E1,-5.634891558E-1,5.324591517E-2,1.120858616E-1,5.769908115E-1
1.131893246E1,-7.493388122E-1,7.882923782E-2,3.183474170E-1,8.179656363E-1
1.132888346E1,-7.103770602E-1,1.240799627E-1,3.127307278E-1,7.860228450E-1
1.133883346E1,-3.110742116E-1,4.490369260E-2,2.032147175E-1,3.742722647E-1
1.134878346E1,1.211063612E-1,-1.142885077E-1,-3.265377581E-2,1.696905501E-1
1.135873446E1,2.954592222E-1,-1.064468068E-1,-3.730197604E-1,4.876174897E-1
1.136868446E1,2.408760488E-1,-1.548675996E-1,-5.864926869E-1,6.526706030E-1
1.137863546E1,8.244749486E-2,-2.473457006E-1,-6.924629456E-1,7.399205471E-1
1.138858546E1,-1.767595750E-1,-2.101094618E-1,-6.038513160E-1,6.633448162E-1
1.139853546E1,-3.525777483E-1,-1.731632450E-1,-2.952770814E-1,4.914113682E-1
1.140848646E1,-5.282883328E-1,-1.067046690E-1,1.446612847E-1,5.580334544E-1
1.141843646E1,-5.659607738E-1,5.230012804E-2,3.685836241E-1,6.774221644E-1
1.142838646E1,-2.126796055E-1,1.005016503E-1,4.210088825E-1,4.822672241E-1
1.143833746E1,2.777181852E-1,7.357960761E-2,3.063255416E-1,4.199722449E-1
1.144828746E1,6.585683906E-1,3.395624310E-2,2.784151733E-3,6.594490906E-1
1.145823746E1,6.795979017E-1,-4.956421584E-2,-2.786970091E-1,7.361942287E-1
1.146818846E1,2.989307141E-1,-2.736321509E-2,-4.523698390E-1,5.429058745E-1
1.147813846E1,-1.568790418E-1,-9.326338202E-2,-5.118525405E-1,5.434170732E-1
1.148808846E1,-4.689724231E-1,-4.085624993E-2,-3.909886926E-1,6.119448705E-1
1.149803946E1,-6.583555520E-1,-4.372080088E-2,-1.208446983E-1,6.707808750E-1
1.150798946E1,-5.478010762E-1,-7.957154185E-2,1.859168994E-1,5.839372764E-1
1.151794046E1,-6.497133672E-2,-6.184015274E-2,2.938544539E-1,3.072391888E-1
1.152789046E1,3.939982545E-1,-1.257212761E-1,2.793649073E-1,4.990843769E-1
1.153784046E1,6.784740669E-1,-1.807567316E-1,1.160485196E-1,7.116651701E-1
1.154779146E1,7.505070859E-1,-1.735061842E-1,-8.173778906E-2,7.746265863E-1
1.155774146E1,5.708057767E-1,-1.564790922E-1,-1.644063087E-1,6.142754882E-1
1.156769146E1,1.909718174E-1,-2.613237619E-2,-1.791850001E-1,2.631737076E-1
1.157764246E1,-2.502748632E-1,9.700179935E-2,-1.211597170E-1,2.944936897E-1
1.158759246E1,-4.093618137E-1,3.281837493E-2,7.425817698E-3,4.107423560E-1
1.159754246E1,-2.323636723E-1,-1.029551420E-1,8.497407675E-2,2.679799081E-1
1.160748925E1,-4.659178376E-2,-3.043744719E-1,7.103387609E-2,3.160070015E-1
1.161743925E1,9.698367298E-2,-4.330222794E-1,-5.347512603E-2,4.469605312E-1
1.162739025E1,2.508239168E-1,-3.821281144E-1,-1.828074963E-1,4.922937271E-1
1.163734025E1,2.559285361E-1,-2.016429859E-1,-8.082606196E-2,3.356965321E-1
1.164729025E1,6.610101879E-2,-4.177747875E-2,-6.046824977E-2,9.884893346E-2
1.165724125E1,-1.243755394E-1,1.118016869E-2,-1.095393991E-1,1.661118627E-1
1.166719125E1,-1.338772649E-1,-3.558381557E-2,-6.148011044E-2,1.515557124E-1
1.167714125E1,-1.394736350E-2,-9.342184156E-2,-2.095656708E-2,9.675405487E-2
1.168709225E1,2.354100716E-1,-2.649326634E-1,-7.332598463E-2,3.619170043E-1
1.169704225E1,7.301926893E-1,-5.405060899E-1,-1.831108207E-1,9.267457955E-1
1.170699225E1,1.201876466E0,-5.914239362E-1,-3.405500257E-1,1.382122872E0
1.171694325E1,1.390850875E0,-6.534383360E-1,-4.119199705E-1,1.590951249E0
1.172689325E1,1.354682338E0,-6.508559132E-1,-3.970453848E-1,1.554484703E0
1.173684325E1,1.258633634E0,-4.960973641E-1,-3.087261160E-1,1.387653788E0
1.174679425E1,1.232166798E0,-4.938610965E-1,-1.627391213E-1,1.337392172E0
1.175674425E1,1.437464293E0,-5.772339132E-1,4.081634268E-2,1.549570443E0
1.176669525E1,1.761260877E0,-6.443786600E-1,1.763056849E-1,1.883705770E0
1.177664525E1,2.074719583E0,-8.036360568E-1,2.283061431E-1,2.236608136E0
1.178659525E1,2.727900349E0,-9.752059355E-1,3.187475127E-1,2.914458253E0
1.179654625E1,3.585020303E0,-1.157042648E0,3.281798024E-1,3.781378088E0
1.180649625E1,4.244587398E0,-1.298606078E0,2.224852400E-1,4.444367177E0
1.181644625E1,4.600556531E0,-1.513440090E0,1.573887728E-1,4.845657079E0
1.182639725E1,4.692986392E0,-1.781669121E0,2.243500632E-1,5.024818314E0
1.183634725E1,4.404183640E0,-1.807355062E0,5.401751375E-1,4.791153832E0
1.184629725E1,4.018350438E0,-1.687182502E0,8.619819134E-1,4.442604850E0
1.185624825E1,3.799811338E0,-1.692851377E0,1.047822653E0,4.289783712E0
1.186619825E1,3.872415045E0,-1.926605517E0,1.290985694E0,4.513762417E0
1.187614925E1,4.122120389E0,-2.299017021E0,1.340458255E0,4.906545027E0
1.188609925E1,4.375362130E0,-2.604007789E0,1.381248577E0,5.275651426E0
1.189604925E1,4.686523465E0,-2.713234363E0,1.346932292E0,5.580266077E0
1.190600025E1,4.744302726E0,-2.795083103E0,9.815503107E-1,5.593240467E0
1.191595025E1,4.363886384E0,-2.885174662E0,6.943298154E-1,5.277293918E0
1.192590025E1,3.786016586E0,-3.011604329E0,6.873055552E-1,4.886314680E0
1.193585125E1,3.230502448E0,-3.133231677E0,9.054419285E-1,4.590545925E0
1.194580125E1,2.749874185E0,-3.433032457E0,1.118814868E0,4.538641492E0
1.195575125E1,2.969899648E0,-3.780126101E0,1.408283033E0,5.009283218E0
1.196570225E1,3.524376490E0,-3.866821014E0,1.523515427E0,5.449278269E0
1.197565225E1,3.807730806E0,-4.247747233E0,1.476878181E0,5.892651323E0
1.198560325E1,4.225218496E0,-4.989778780E0,1.578091584E0,6.726123449E0
1.199555325E1,4.274507308E0,-5.607581552E0,1.594882887E0,7.229110250E0
1.200550325E1,3.487163640E0,-5.593371064E0,1.621873196E0,6.787973393E0
1.201545425E1,2.686338925E0,-5.514089836E0,1.552108896E0,6.326977601E0
1.202540425E1,2.625481397E0,-5.583419103E0,1.539571881E0,6.359088223E0
1.203535425E1,3.189959024E0,-5.984777833E0,1.605548354E0,6.969303394E0
1.204530525E1,3.171609877E0,-6.595743456E0,1.048917398E0,7.393454447E0
1.205525525E1,3.152787690E0,-6.990843326E0,2.909440388E-1,7.674412620E0
1.206520525E1,2.845475869E0,-7.020164773E0,-3.047487302E-1,7.581049938E0
1.207515625E1,1.013379483E0,-7.552839687E0,-5.367170942E-1,7.639397264E0
1.208510625E1,-1.065892596E0,-7.517281015E0,-8.284054470E-1,7.637532093E0
1.209505725E1,-1.527380729E0,-6.488587967E0,-4.617791784E-1,6.681908837E0
1.210500725E1,-1.527316556E0,-5.752867320E0,6.478176999E-1,5.987307077E0
1.211495725E1,-1.667072904E0,-5.368158537E0,1.180868590E0,5.743753892E0
1.212490825E1,-1.626405957E0,-5.023527739E0,1.114002755E0,5.396483060E0
1.213485825E1,-2.219145225E0,-4.516381184E0,-1.367851583E-1,5.033985966E0
1.214480825E1,-2.977244920E0,-4.348509961E0,-1.329728175E0,5.435227982E0
1.215475925E1,-3.168590959E0,-4.357850304E0,-1.809154251E0,5.683649095E0
1.216470925E1,-2.834296870E0,-4.386113990E0,-1.672788996E0,5.483562501E0
1.217465925E1,-3.001583078E0,-4.269512324E0,-1.028642616E0,5.319430617E0
1.218461025E1,-3.975221083E0,-3.597944988E0,-2.822753589E-1,5.369103293E0
1.219456025E1,-5.369854814E0,-2.439003457E0,7.160074903E-1,5.941106405E0
1.220451125E1,-6.829595829E0,-1.317898089E0,1.517838804E0,7.119274485E0
1.221446125E1,-7.971679838E0,-6.772321182E-1,1.751304676E0,8.189834604E0
1.222441125E1,-8.977479283E0,-1.656370014E-1,1.601161188E0,9.120651678E0
1.223436225E1,-9.928341798E0,3.129266095E-1,1.382590513E0,1.002903038E1
1.224431225E1,-9.851083707E0,2.272765946E-1,1.464296581E0,9.961910927E0
1.225426225E1,-8.819541310E0,-1.543179613E-1,1.847058534E0,9.012199963E0
1.226421325E1,-7.917722901E0,-2.354942715E-1,1.911920528E0,8.148695208E0
1.227416325E1,-7.850645982E0,-2.005232441E-1,1.515811720E0,7.998158355E0
1.228411325E1,-8.359366608E0,1.950829947E-1,1.193270973E0,8.446357977E0
1.229406425E1,-8.778325456E0,6.817064077E-1,1.409198560E0,8.916813446E0
1.230401425E1,-8.771072570E0,8.717105108E-1,1.811146982E0,8.998435788E0
1.231396525E1,-8.614080092E0,9.958135700E-1,1.923770641E0,8.882280900E0
1.232391525E1,-8.609013480E0,1.077373458E0,1.791368482E0,8.859167439E0
1.233386525E1,-8.590914009E0,1.078432388E0,1.615555718E0,8.807771580E0
1.234381625E1,-8.318526145E0,1.015734449E0,1.564893541E0,8.525167769E0
1.235376625E1,-7.375691273E0,5.754081202E-1,1.691036986E0,7.588907849E0
1.236371625E1,-5.957033379E0,1.135593599E-1,1.765219149E0,6.214108227E0
1.237366725E1,-5.073101603E0,-2.688140452E-2,1.562716623E0,5.308405196E0
1.238361725E1,-5.140452172E0,-1.497945553E-1,9.164608602E-1,5.223656521E0
1.239356725E1,-5.607479811E0,-8.887592375E-2,3.122870703E-1,5.616872081E0
1.240351825E1,-6.091791819E0,1.453746450E-1,2.323882306E-1,6.097955858E0
1.241346825E1,-6.206891336E0,3.210869837E-1,5.685082595E-1,6.241137600E0
1.242341925E1,-6.353533072E0,4.819567502E-1,8.928614978E-1,6.434039669E0
1.243336925E1,-6.492599741E0,4.086969852E-1,1.050201885E0,6.589674394E0
1.244331925E1,-5.761148731E0,-1.531847709E-1,1.440059726E0,5.940376444E0
1.245327025E1,-3.885947256E0,-1.100334889E0,1.870816502E0,4.450986107E0
1.246322025E1,-2.276186129E0,-1.433118058E0,2.009329585E0,3.357418062E0
1.247317025E1,-1.766576580E0,-1.882880623E0,1.556870138E0,3.014942269E0
1.248312125E1,-2.618011871E0,-2.111264096E0,6.960145444E-1,3.434509934E0
1.249307125E1,-3.966726248E0,-1.917180390E0,-1.440724701E-1,4.408089683E0
1.250302125E1,-5.093339986E0,-1.886284288E0,-5.380039202E-1,5.457987618E0
1.251297225E1,-5.974410719E0,-1.711492301E0,-5.184181597E-1,6.236308742E0
1.252292225E1,-6.443057452E0,-1.749407401E0,-2.357725990E-1,6.680494316E0
1.253287325E1,-6.160446902E0,-2.347098675E0,3.810928649E-1,6.603424111E0
1.254282325E1,-5.335084346E0,-3.226457344E0,1.131083130E0,6.336600115E0
1.255277325E1,-4.440073850E0,-3.948577952E0,1.619787494E0,6.158671542E0
1.256272425E1,-2.936473162E0,-4.646194634E0,1.950256335E0,5.832109308E0
1.257267425E1,-4.510812588E-1,-5.601111023E0,2.370878132E0,6.098932867E0
1.258262425E1,1.075678642E0,-5.926247204E0,1.703230770E0,6.259271964E0
1.259257525E1,1.026223477E0,-5.961393648E0,6.137810576E-1,6.080137830E0
1.260252558E1,2.246242976E-1,-5.420672965E0,-7.815096080E-2,5.425887857E0
1.261247658E1,-1.238339411E0,-4.643442349E0,-5.525888129E-1,4.837395554E0
1.262242658E1,-2.655008666E0,-4.459792415E0,-6.343001799E-1,5.228877138E0
1.263237658E1,-3.616166959E0,-4.718670287E0,-3.319564459E-1,5.954217651E0
1.264232758E1,-4.160234587E0,-5.107643445E0,2.852230865E-1,6.593703480E0
1.265227758E1,-3.974995673E0,-5.415072502E0,1.146868127E0,6.814609842E0
1.266222758E1,-3.247680398E0,-5.863886649E0,2.009088095E0,6.997787477E0
1.267217858E1,-1.563285264E0,-6.259733208E0,2.428099715E0,6.893749987E0
1.268212858E1,4.793073767E-1,-5.696742235E0,1.773519564E0,5.985647776E0
1.269207858E1,2.911567824E0,-5.042982010E0,9.839747125E-1,5.905683787E0
1.270202958E1,5.313068410E0,-5.839617196E0,-6.395901559E-1,7.920789133E0
1.271197958E1,6.248363298E0,-6.060081199E0,-3.021507173E0,9.213909791E0
1.272193058E1,5.679674213E0,-5.189248356E0,-4.433612677E0,8.879409836E0
1.273188058E1,4.360554641E0,-4.358189442E0,-4.287610626E0,7.509451169E0
1.274183058E1,3.068902364E0,-4.433440769E0,-2.825985637E0,6.087672264E0
1.275178158E1,3.249873104E0,-4.389535781E0,-5.719103158E-1,5.491519004E0
1.276173158E1,4.976854094E0,-4.261661852E0,2.050644257E0,6.865564819E0
1.277168158E1,6.182206730E0,-3.759555304E0,2.905787852E0,7.797277678E0
1.278163258E1,6.306038479E0,-2.880898886E0,2.164617015E0,7.263006713E0
1.279158258E1,5.757179641E0,-2.179393221E0,5.485495198E-1,6.180273360E0
1.280153358E1,4.910156659E0,-2.402383515E0,-7.331964040E-1,5.515311590E0
1.281148358E1,4.490248223E0,-2.596390622E0,-1.017240546E0,5.285674195E0
1.282143358E1,4.471948192E0,-2.271709355E0,-7.225671892E-1,5.067651070E0
1.283138458E1,4.204883049E0,-1.873097647E0,-6.778852522E-2,4.603708455E0
1.284133458E1,3.609775659E0,-1.577842200E0,4.563840987E-1,3.965898734E0
1.285128458E1,3.398604051E0,-1.399717300E0,6.916414118E-1,3.740064954E0
1.286123558E1,3.962101977E0,-1.461415073E0,8.439246882E-1,4.306529342E0
1.287118558E1,4.351575072E0,-1.496686648E0,6.502169587E-1,4.647478738E0
1.288113658E1,4.188539497E0,-1.371063605E0,2.305207761E-1,4.413254848E0
1.289108658E1,3.616121643E0,-1.208504578E0,2.057209803E-1,3.818264026E0
1.290103658E1,2.692847461E0,-1.012838615E0,4.196008730E-1,2.907461848E0
1.291098758E1,1.876346945E0,-5.062247416E-1,5.497195476E-1,2.019686344E0
1.292093758E1,1.325784813E0,-1.926827127E-1,7.869729540E-1,1.553756232E0
1.293088758E1,1.048235613E0,-1.540291089E-1,1.031477492E0,1.478671256E0
1.294083858E1,1.043533866E0,-2.623785996E-1,1.132632423E0,1.562261715E0
1.295078858E1,1.102550399E0,-2.390789071E-1,1.261311659E0,1.692242065E0
1.296073958E1,1.259642864E0,-1.738087776E-1,1.093097790E0,1.676834045E0
1.297068958E1,1.376164423E0,-2.452687696E-1,7.897015572E-1,1.605494889E0
1.298063958E1,1.292794238E0,-1.867451575E-1,5.342956160E-1,1.411262733E0
1.299059058E1,1.144218242E0,-2.292108536E-2,2.452190682E-1,1.170424348E0
1.300054058E1,9.382670277E-1,-3.436408639E-3,2.001230022E-1,9.593779444E-1
1.301049058E1,6.714147234E-1,-1.029545572E-1,1.060016875E-1,6.874836212E-1
1.302044158E1,1.944263524E-1,-2.548079172E-1,2.799237549E-2,3.217332035E-1
1.303039158E1,-3.534437209E-1,-3.015026119E-1,1.327727258E-1,4.831716937E-1
1.304034158E1,-6.410097867E-1,-1.407907203E-1,3.689908826E-1,7.529075940E-1
1.305029258E1,-5.141620445E-1,-7.179649919E-2,5.310680991E-1,7.426645752E-1
1.306024258E1,-2.046104479E-1,-1.038266695E-1,5.651472799E-1,6.099482443E-1
1.307019358E1,2.162826598E-1,4.395001173E-2,1.600242591E-1,2.726124648E-1
1.308014358E1,4.578375703E-1,5.346986353E-3,-1.702416837E-1,4.884936662E-1
1.309009358E1,2.637602967E-1,-8.388006270E-2,-2.292158237E-1,3.593678518E-1
1.310004458E1,-7.681370258E-2,-4.864269465E-2,-2.267459598E-1,2.442952864E-1
1.310999458E1,-2.606349599E-1,-1.167580792E-1,-2.291728467E-1,3.661737635E-1
1.311994558E1,-3.081201982E-1,-2.402334398E-1,-2.903565033E-1,4.867823550E-1
1.312989558E1,-3.347256142E-1,-1.961422178E-1,-3.306957132E-1,5.097770700E-1
1.313984558E1,-3.689879590E-1,-1.241998306E-1,-3.233673978E-1,5.061068917E-1
1.314979658E1,-5.346489340E-1,-1.094899902E-1,-3.034026647E-1,6.244122977E-1
1.315974658E1,-5.713168234E-1,-5.522724420E-2,-2.010518324E-1,6.081733310E-1
1.316969658E1,-3.274639571E-1,-8.350613326E-2,-4.128835917E-2,3.404565260E-1
1.317964758E1,4.618130922E-2,-2.372118911E-1,2.251218957E-1,3.302757371E-1
1.318959758E1,2.993177998E-1,-2.118753210E-1,2.367432368E-1,4.364970299E-1
1.319954858E1,3.421007073E-1,-1.599456140E-1,-4.557860747E-2,3.803852032E-1
1.320949858E1,2.446375626E-1,-3.141217804E-1,-1.941557725E-1,4.429633099E-1
1.321944858E1,7.698502600E-2,-1.982302585E-1,-1.947429791E-1,2.883517947E-1
1.322939958E1,-1.061906987E-1,-7.306592971E-2,-3.010819048E-1,3.275139813E-1
1.323934958E1,-2.975080866E-1,-1.273991346E-2,-3.488695903E-1,4.586756567E-1
1.324929958E1,-4.601881510E-1,-1.037413001E-2,-2.764284356E-1,5.369296387E-1
1.325925058E1,-5.785515833E-1,3.876294672E-2,-2.642143330E-1,6.372077482E-1
1.326920058E1,-5.408195007E-1,5.851805717E-2,-2.868053430E-1,6.149531691E-1
1.327915158E1,-4.433107477E-1,-6.293562859E-2,-9.972967163E-2,4.587279366E-1
1.328910158E1,-2.665166742E-1,6.894832045E-2,1.426118356E-1,3.100373270E-1
1.329905158E1,4.002419114E-3,2.404743451E-1,1.271436113E-1,2.720467385E-1
1.330900258E1,7.192367613E-2,1.632870054E-1,5.331476614E-2,1.862206369E-1
1.331895258E1,1.520018792E-1,1.671806663E-2,1.724652337E-1,2.304958174E-1
1.332890258E1,2.051021987E-1,2.823240370E-2,2.138085566E-1,2.976206973E-1
1.333885358E1,1.002376485E-1,-2.426185191E-2,1.051333760E-1,1.472727075E-1
1.334880358E1,-5.536903918E-2,-1.583367527E-2,-5.764331371E-2,8.148120880E-2
1.335875458E1,-2.125269932E-1,3.103643596E-2,-2.253189468E-1,3.112870235E-1
1.336870458E1,-4.054131889E-1,-6.972804666E-4,-2.763961297E-1,4.906680757E-1
1.337865458E1,-5.054315668E-1,9.313649744E-2,-2.865996672E-1,5.884512258E-1
1.338860558E1,-4.994668221E-1,1.483032230E-1,-1.275173946E-1,5.363969037E-1
1.339855558E1,-3.244760299E-1,3.908395886E-2,1.877979487E-1,3.769354313E-1
1.340850658E1,9.572476745E-3,-3.308646977E-3,3.952875656E-1,3.954172973E-1
1.341845658E1,4.812468982E-1,-4.742530435E-2,3.443571478E-1,5.936577985E-1
1.342840658E1,6.490280735E-1,-1.509049416E-1,6.941872895E-2,6.699467901E-1
1.343835758E1,4.980933112E-1,-1.038263771E-1,-2.429032785E-1,5.638074724E-1
1.344830758E1,1.616743433E-1,-1.725951880E-2,-3.587442219E-1,3.938704115E-1
1.345825758E1,-2.292552924E-1,3.923013926E-2,-3.137750405E-1,3.905787615E-1
1.346820858E1,-5.942075032E-1,7.564952195E-2,-2.305881652E-1,6.418538065E-1
1.347815858E1,-6.607336146E-1,1.899652192E-1,-1.944845322E-1,7.144787801E-1
1.348810858E1,-4.348679531E-1,3.145305008E-2,-1.803678918E-1,4.718389634E-1
1.349805958E1,-4.734490514E-3,-1.402407897E-1,-1.438233787E-1,2.009354591E-1
1.350800958E1,4.553922647E-1,-1.877538022E-1,-1.599973619E-1,5.179119238E-1
1.351796058E1,5.309663576E-1,-1.459020638E-1,-1.631291306E-1,5.743028803E-1
1.352791058E1,2.722504538E-1,-1.064292651E-1,-1.156564638E-1,3.143627136E-1
1.353786058E1,-5.748397708E-3,-4.120474398E-2,3.568555713E-3,4.175655149E-2
1.354781158E1,-1.390830410E-1,6.506167620E-2,2.021367833E-2,1.548731958E-1
1.355776158E1,-1.740213239E-1,-2.220772505E-3,-1.184821308E-1,2.105382823E-1
1.356771258E1,-7.662600696E-2,-1.533885464E-1,-2.484400070E-1,3.018642546E-1
1.357766258E1,2.973917270E-1,-2.614740354E-1,-3.472247685E-1,5.266645520E-1
1.358761258E1,8.200813508E-1,-3.573932227E-1,-4.005219930E-1,9.801434612E-1
1.359756358E1,1.311878380E0,-3.466016015E-1,-5.221499258E-1,1.453890677E0
1.360751321E1,1.651893386E0,-4.870838812E-1,-5.291562058E-1,1.801668325E0
1.361746421E1,1.980308685E0,-6.765579343E-1,-4.043963581E-1,2.131405531E0
1.362741421E1,2.022112768E0,-6.242449424E-1,-2.874573076E-1,2.135709133E0
1.363736421E1,2.066614757E0,-6.107519075E-1,-3.183984339E-2,2.155209554E0
1.364731521E1,2.595183756E0,-8.460491279E-1,1.954509307E-1,2.736599883E0
1.365726521E1,3.457470310E0,-1.231791406E0,2.637170273E-1,3.679804028E0
1.366721521E1,4.383794399E0,-1.447548986E0,4.605793297E-2,4.616835793E0
1.367716621E1,4.973612398E0,-1.619200433E0,-3.005078544E-1,5.239173150E0
1.368711621E1,4.990591543E0,-1.845778871E0,-4.365741706E-1,5.338866976E0
1.369706721E1,4.726942343E0,-1.948398675E0,-1.368125671E-1,5.114582973E0
1.370701721E1,4.624073448E0,-1.891263776E0,4.961929661E-1,5.020472227E0
1.371696721E1,4.649611162E0,-2.115686345E0,1.210489853E0,5.249790315E0
1.372691821E1,4.892498653E0,-2.372234686E0,1.702833013E0,5.697690826E0
1.373686821E1,5.228526442E0,-2.553921710E0,1.899997762E0,6.121274079E0
1.374681921E1,5.445220746E0,-2.835278617E0,1.865307986E0,6.416276778E0
1.375676921E1,5.308170782E0,-3.091187857E0,1.883067150E0,6.424800488E0
1.376671921E1,4.805944074E0,-3.147032860E0,1.746914879E0,6.004383887E0
1.377667021E1,4.027179734E0,-2.914535286E0,1.397706004E0,5.163939835E0
1.378662021E1,3.279709691E0,-2.685721459E0,9.537785214E-1,4.345030366E0
1.379657121E1,2.715049338E0,-2.681565258E0,8.405594695E-1,3.907534435E0
1.380652121E1,2.598892645E0,-3.087730399E0,9.877999610E-1,4.155005507E0
1.381647121E1,2.709189259E0,-3.460617866E0,1.256307904E0,4.570983702E0
1.382642221E1,2.757763249E0,-3.661465631E0,1.466065364E0,4.812581049E0
1.383637221E1,2.898587006E0,-3.810793578E0,1.681714770E0,5.074654559E0
1.384632321E1,2.982219146E0,-3.977709365E0,1.853001351E0,5.305602401E0
1.385627321E1,2.659917111E0,-4.093274905E0,1.641436810E0,5.150181870E0
1.386622321E1,2.099063296E0,-4.313766391E0,1.415016248E0,5.001691531E0
1.387617421E1,1.430017572E0,-4.584779574E0,9.197576666E-1,4.889898584E0
1.388612421E1,1.063260033E0,-4.905683540E0,4.560904223E-1,5.040265009E0
1.389607521E1,1.577454237E0,-5.234949024E0,5.518064554E-1,5.495229160E0
1.390602521E1,1.683268960E0,-5.377776622E0,5.099660826E-1,5.658086354E0
1.391597521E1,1.405286773E0,-5.472448890E0,2.480441322E-1,5.655444603E0
1.392592621E1,1.289681765E0,-5.742779118E0,4.631170213E-2,5.885994889E0
1.393587621E1,1.619875202E0,-6.051204541E0,3.207162702E-1,6.272474073E0
1.394582721E1,1.415106587E0,-5.983361637E0,7.370690149E-1,6.192448132E0
1.395577721E1,5.693026038E-1,-6.090132964E0,8.927178025E-1,6.181486071E0
1.396572721E1,8.242710270E-2,-6.614448699E0,2.556841224E-1,6.619901826E0
1.397567821E1,-6.419851023E-1,-6.529184015E0,-7.076347160E-1,6.598722276E0
1.398562821E1,-1.436878548E0,-6.195697426E0,-1.622032825E0,6.563709092E0
1.399557821E1,-2.156262952E0,-5.811392686E0,-2.140586713E0,6.557733323E0
1.400552921E1,-2.307558634E0,-5.688798208E0,-2.180919052E0,6.514879877E0
1.401547921E1,-1.609241310E0,-5.654821208E0,-1.068778051E0,5.975696361E0
1.402543021E1,-1.568490456E0,-4.971155983E0,2.235250211E-1,5.217520249E0
1.403538021E1,-2.337691090E0,-4.168077165E0,6.536198920E-1,4.823368725E0
1.404533021E1,-3.409292761E0,-3.565231571E0,8.530631554E-1,5.006183180E0
1.405528121E1,-4.875997226E0,-2.781818694E0,3.060187089E-1,5.622055820E0
1.406523121E1,-5.858033001E0,-2.214952186E0,-6.386445880E-1,6.295270506E0
1.407518221E1,-5.763774716E0,-1.968057014E0,-1.042505999E0,6.179091045E0
1.408513221E1,-4.722122191E0,-2.195180996E0,-1.012610209E0,5.304963433E0
1.409508321E1,-3.976910343E0,-2.397320411E0,-1.165787524E0,4.787694809E0
1.410503321E1,-3.986027322E0,-2.274628285E0,-1.215849119E0,4.747698045E0
1.411498321E1,-4.586881648E0,-1.887950159E0,-4.242950908E-1,4.978339621E0
1.412493421E1,-5.869438580E0,-7.998874068E-1,6.509341928E-1,5.959349330E0
1.413488421E1,-7.338172029E0,5.860015208E-1,1.130804729E0,7.447877942E0
1.414483521E1,-8.566541644E0,1.381735066E0,1.315634047E0,8.776429825E0
1.415478521E1,-9.788665264E0,1.355141344E0,9.043403131E-1,9.923316337E0
1.416473521E1,-1.088343302E1,1.177367862E0,2.950461164E-2,1.094697127E1
1.417468621E1,-1.128677045E1,1.007351296E0,-3.734043610E-1,1.133778526E1
1.418463621E1,-1.046318310E1,5.827294189E-1,-3.310349979E-1,1.048462486E1
1.419458721E1,-8.736223165E0,6.543034315E-2,8.302929282E-2,8.736862719E0
1.420453721E1,-7.787331161E0,2.311071056E-1,4.376465499E-2,7.790882649E0
1.421448721E1,-8.044458961E0,6.058879012E-1,-2.558041365E-1,8.071298278E0
1.422443821E1,-8.518421398E0,8.728092027E-1,-6.829021633E-2,8.563291574E0
1.423438821E1,-8.683146819E0,1.089013510E0,4.310712098E-1,8.761781297E0
1.424433921E1,-8.503601046E0,1.290616735E0,8.672929394E-1,8.644600589E0
1.425428921E1,-7.963950988E0,1.288142778E0,1.129323045E0,8.146115497E0
1.426423921E1,-7.570864899E0,1.366351041E0,1.127418607E0,7.775344571E0
1.427419021E1,-7.408548532E0,1.452316806E0,1.026394508E0,7.619009196E0
1.428414021E1,-6.716213640E0,1.152121924E0,1.239450089E0,6.926120639E0
1.429409121E1,-4.835870416E0,3.555235755E-1,1.610844762E0,5.109487307E0
1.430404121E1,-3.250822984E0,-1.332983905E-1,1.689062966E0,3.665863096E0
1.431399121E1,-2.795059714E0,5.222148299E-2,1.124477457E0,3.013226749E0
1.432394221E1,-3.138322263E0,3.168670481E-1,7.226701002E-1,3.236004237E0
1.433389221E1,-3.492522613E0,2.856148499E-1,6.635886638E-1,3.566460425E0
1.434384321E1,-3.800684035E0,2.348253500E-1,7.846665198E-1,3.887935651E0
1.435379321E1,-4.601979159E0,4.086098617E-1,7.928010200E-1,4.687612148E0
1.436374321E1,-5.695577470E0,5.848735929E-1,7.774345373E-1,5.778069253E0
1.437369421E1,-5.349840379E0,-3.997858286E-2,1.447175203E0,5.542265461E0
1.438364421E1,-3.302378762E0,-1.171317163E0,2.642694722E0,4.388795368E0
1.439359521E1,-1.761400187E0,-1.673993522E0,2.913271703E0,3.793670643E0
1.440354521E1,-1.073626708E0,-2.261477312E0,2.321567978E0,3.414180987E0
1.441349621E1,-1.390746648E0,-2.457413415E0,1.229145980E0,3.079587111E0
1.442344621E1,-2.318982339E0,-2.253283609E0,2.216029682E-1,3.240998918E0
1.443339621E1,-3.313135884E0,-2.340748599E0,-3.550620840E-1,4.072105411E0
1.444334721E1,-4.308829879E0,-2.579813181E0,-7.626517528E-1,5.079674071E0
1.445329721E1,-5.046002097E0,-2.595763800E0,-6.671428207E-1,5.713598377E0
1.446324821E1,-5.118912199E0,-2.758677753E0,3.272737764E-2,5.815035350E0
1.447319821E1,-4.224245519E0,-3.465682139E0,1.212582645E0,5.596924117E0
1.448314821E1,-2.881680366E0,-4.373968738E0,2.338028474E0,5.736031852E0
1.449309921E1,-1.402306447E0,-4.829941632E0,2.779603184E0,5.746389597E0
1.450304921E1,-7.229906738E-1,-4.867301247E0,2.258109316E0,5.414092225E0
1.451300021E1,-1.072246911E0,-4.974676591E0,7.662553918E-1,5.146286812E0
1.452295021E1,-1.783881415E0,-5.087776945E0,-8.640423992E-1,5.460245087E0
1.453290121E1,-2.619256158E0,-5.256401873E0,-1.830341052E0,6.151456075E0
1.454285121E1,-3.237704756E0,-5.603342906E0,-1.989879992E0,6.770510039E0
1.455280121E1,-3.396162254E0,-5.708298088E0,-1.542116005E0,6.818849381E0
1.456275221E1,-3.421971279E0,-5.705128897E0,-6.046834113E-1,6.680121645E0
1.457270221E1,-3.565189471E0,-5.808809971E0,4.602407759E-1,6.831154427E0
1.458265321E1,-3.676885323E0,-5.773484602E0,1.247021064E0,6.957562192E0
1.459260321E1,-3.399425000E0,-5.846007033E0,1.166968077E0,6.862485195E0
1.460255296E1,-2.108953276E0,-6.073949625E0,3.772062206E-1,6.440716770E0
1.461250396E1,4.503098649E-1,-6.229993100E0,-4.027445197E-1,6.259216896E0
1.462245396E1,3.212132835E0,-7.160557591E0,-2.101642503E0,8.124548207E0
1.463240496E1,5.313898129E0,-6.991571304E0,-4.100065277E0,9.691755151E0
1.464235496E1,5.734608804E0,-5.919421749E0,-4.696936771E0,9.486121811E0
1.465230596E1,4.946718130E0,-5.173445671E0,-3.843270183E0,8.124363733E0
1.466225596E1,3.712733433E0,-4.780603995E0,-1.682714644E0,6.282522795E0
1.467220596E1,2.664189672E0,-3.915345887E0,4.667265075E-1,4.758747068E0
1.468215696E1,2.209647008E0,-3.277946464E0,1.920450738E0,4.394952099E0
1.469210696E1,2.430262454E0,-3.221939493E0,2.275218707E0,4.632892170E0
1.470205796E1,3.837224747E0,-3.386537737E0,1.505275623E0,5.334677713E0
1.471200796E1,6.145697300E0,-3.348851262E0,1.381187620E-1,7.000248344E0
1.472195896E1,7.897381607E0,-3.534714367E0,-1.130726377E0,8.725903051E0
1.473190896E1,7.817502210E0,-3.532465528E0,-2.218780358E0,8.860848706E0
1.474185896E1,6.275441753E0,-2.731223322E0,-2.495325592E0,7.284737459E0
1.475180996E1,4.510886555E0,-2.244372160E0,-1.786495705E0,5.345733889E0
1.476175996E1,3.396136526E0,-2.069035797E0,-5.406961244E-1,4.013353302E0
1.477171096E1,3.057923632E0,-1.585251792E0,7.089877617E-1,3.516615394E0
1.478166096E1,3.132146434E0,-1.195739229E0,1.281110916E0,3.589063773E0
1.479161196E1,3.240513466E0,-1.056169407E0,1.114062835E0,3.585743625E0
1.480156196E1,3.286008897E0,-9.750080073E-1,7.183893536E-1,3.502082002E0
1.481151196E1,3.617969947E0,-9.465788448E-1,4.165285997E-1,3.762873121E0
1.482146296E1,3.805294272E0,-7.327163476E-1,6.305286527E-1,3.926156406E0
1.483141296E1,3.473405142E0,-4.266657713E-1,9.713615374E-1,3.631821884E0
1.484136396E1,2.883831557E0,-3.573958540E-1,1.038890008E0,3.086018259E0
1.485131396E1,2.432058719E0,-3.302940094E-1,9.838560140E-1,2.644234559E0
1.486126496E1,2.096183542E0,-3.398904598E-1,9.518582958E-1,2.327132395E0
1.487121496E1,1.827432062E0,-2.794589013E-1,9.237852287E-1,2.066636003E0
1.488116496E1,1.606161727E0,-1.647327295E-1,9.674390790E-1,1.882240882E0
1.489111596E1,1.157790214E0,-1.387330851E-1,1.102496604E0,1.604750389E0
1.490106596E1,5.831562656E-1,1.698683390E-1,1.156748825E0,1.306519930E0
1.491101696E1,3.017303610E-1,3.177064160E-1,9.705053589E-1,1.064828263E0
1.492096696E1,4.185910589E-1,-9.968420953E-2,7.865747586E-1,8.965797606E-1
1.493091796E1,8.110070568E-1,-2.928364536E-1,5.837415719E-1,1.041268389E0
1.494086796E1,1.060439336E0,-1.337655830E-1,1.682792120E-1,1.082008646E0
1.495081796E1,9.446592039E-1,-3.274309203E-1,-1.131887926E-1,1.006182748E0
1.496076896E1,5.979163921E-1,-3.970148331E-1,-1.131154101E-1,7.265809560E-1
1.497071896E1,1.098493016E-1,-1.360965756E-1,-2.564603403E-2,1.767678308E-1
1.498066996E1,-4.996001387E-1,-1.117399988E-1,9.606975317E-2,5.208795670E-1
1.499061996E1,-1.056781318E0,-6.542741954E-2,2.237975013E-1,1.082198144E0
1.500057096E1,-1.224169561E0,-9.700706184E-2,2.247954749E-1,1.248412788E0
1.501052096E1,-9.911966085E-1,-2.684196505E-1,2.353035061E-1,1.053512015E0
1.502047196E1,-5.802969772E-1,-1.965693569E-1,6.039048180E-2,6.156550203E-1
1.503042196E1,-2.977419752E-1,-1.205938527E-1,-2.898511577E-1,4.326740744E-1
1.504037196E1,-1.610428441E-1,-2.437733442E-1,-6.015429814E-1,6.687407565E-1
1.505032296E1,-1.212800235E-1,-2.781959027E-1,-8.398847008E-1,8.930330985E-1
1.506027296E1,-2.266749161E-1,-2.105164281E-1,-8.574340953E-1,9.115327267E-1
1.507022396E1,-4.406134272E-1,-1.459745693E-1,-6.538872559E-1,8.018836016E-1
1.508017396E1,-6.593975258E-1,-1.456108725E-1,-4.647084872E-1,8.197326401E-1
1.509012396E1,-7.210377038E-1,-1.422914082E-1,-2.670142722E-1,7.819455458E-1
1.510007496E1,-5.571168602E-1,-1.479070741E-1,-8.631952107E-2,5.828436824E-1
1.511002496E1,-3.422802168E-1,-3.261875099E-1,1.638043378E-1,5.003857507E-1
1.511997596E1,-8.641833901E-2,-2.129816142E-1,6.624661446E-2,2.392026572E-1
1.512992596E1,3.716899574E-2,-1.403761527E-1,-2.472272944E-1,2.867199568E-1
1.513987696E1,8.803509414E-2,-2.449275845E-1,-3.601475537E-1,4.443489168E-1
1.514982696E1,3.774436176E-2,-1.992713553E-1,-8.952628031E-2,2.216949813E-1
1.515977796E1,3.902431726E-2,3.004007041E-2,-3.497775167E-2,6.040485312E-2
1.516972796E1,-7.361410618E-2,8.345818609E-2,-1.397562017E-1,1.786507804E-1
1.517967796E1,-2.783923692E-1,1.161511382E-1,-1.695623834E-1,3.460416160E-1
1.518962896E1,-3.844292861E-1,1.826673093E-1,7.281406090E-2,4.318044805E-1
1.519957896E1,-4.341417289E-1,1.452632555E-1,3.342712855E-1,5.668489627E-1
1.520952996E1,-3.054591304E-1,1.450325829E-1,2.844331276E-1,4.418618953E-1
1.521947996E1,-6.844750643E-2,1.564188659E-2,1.754286025E-1,1.889574670E-1
1.522943096E1,2.294324630E-1,-8.003347188E-2,1.033710252E-1,2.640647280E-1
1.523938096E1,3.393104160E-1,-1.291050598E-1,6.771075726E-2,3.693026151E-1
1.524933096E1,1.753170669E-1,-7.692976981E-2,-4.934289873E-2,1.977093450E-1
1.525928196E1,-1.801503754E-1,-2.357509643E-2,-1.074526741E-1,2.110829697E-1
1.526923196E1,-4.278197193E-1,6.397146285E-3,-6.196411371E-2,4.323311082E-1
1.527918296E1,-3.485174417E-1,4.123514950E-2,3.789244249E-2,3.529880762E-1
1.528913296E1,9.182175100E-2,2.435072958E-2,7.269492388E-2,1.196191621E-1
1.529908396E1,3.566690451E-1,5.545236200E-2,-6.640799761E-2,3.670119812E-1
1.530903396E1,3.100948030E-1,1.471714944E-2,-2.493505646E-1,3.981847378E-1
1.531898496E1,9.955060065E-2,-5.488839805E-2,-1.997258301E-1,2.298118046E-1
1.532893496E1,-7.442979276E-2,5.601632595E-3,1.978917047E-2,7.721906245E-2
1.533888496E1,-1.306677282E-1,3.143433899E-2,1.636838852E-1,2.117890156E-1
1.534883596E1,-1.546015513E-1,1.341234326E-2,1.895098673E-1,2.449398302E-1
1.535878596E1,-1.447355443E-1,-4.549426138E-3,8.211420357E-2,1.664686682E-1
1.536873696E1,-1.979124624E-1,-6.964326203E-2,-8.601254225E-2,2.267546783E-1
1.537868696E1,-1.656077653E-1,-2.859142274E-2,-2.297733557E-1,2.846738421E-1
1.538863796E1,2.361690402E-2,-7.941922188E-2,-3.532503243E-1,3.628373776E-1
1.539858796E1,2.412999719E-1,-1.693090528E-1,-3.765462162E-1,4.782031835E-1
1.540853796E1,3.679307824E-1,-1.660977620E-1,-3.772741945E-1,5.525371888E-1
1.541848896E1,3.425983053E-1,-1.990365896E-1,-3.930289324E-1,5.580868252E-1
1.542843896E1,1.905367845E-1,-2.633483604E-1,-3.214477569E-1,4.571490846E-1
1.543838996E1,5.669050992E-2,-1.954618943E-1,-1.586643429E-1,2.580572412E-1
1.544833996E1,-2.054711580E-3,-1.190841016E-1,-1.205112608E-1,1.694349700E-1
1.545829096E1,-8.307197750E-2,-2.037775120E-1,-1.138868040E-1,2.477830341E-1
1.546824096E1,-6.667404592E-2,-8.039541453E-2,-1.285125907E-1,1.656029500E-1
1.547819196E1,9.995698214E-2,-3.282539159E-2,-1.976259488E-1,2.238859537E-1
1.548814196E1,2.524482733E-1,-1.400074857E-1,-3.640125632E-1,4.645830097E-1
1.549809196E1,2.481236726E-1,-1.695411873E-1,-4.631024033E-1,5.520628651E-1
1.550804296E1,1.799129784E-1,-1.250967935E-1,-4.748563300E-1,5.229784142E-1
1.551799296E1,8.584121883E-2,-1.097563308E-1,-3.431437044E-1,3.703549228E-1
1.552794396E1,3.927691698E-2,-1.033448589E-1,-1.001335680E-1,1.491628892E-1
1.553789396E1,6.359841049E-2,-3.908922136E-2,8.373358995E-3,7.511882709E-2
1.554784496E1,6.245060205E-2,-5.866540700E-2,8.427577302E-2,1.201836661E-1
1.555779496E1,-4.473938584E-2,-1.300882691E-1,1.446051514E-1,1.995876254E-1
1.556774596E1,-2.209119004E-1,-1.367845005E-1,1.696366431E-1,3.103041379E-1
1.557769596E1,-2.251411915E-1,-1.421262243E-1,2.870364542E-1,3.915077851E-1
1.558764596E1,8.024309456E-2,-2.217334342E-1,3.354312269E-1,4.100228994E-1
1.559759696E1,4.959888983E-1,-3.475757477E-1,2.264265557E-1,6.465932823E-1
1.560754712E1,7.761804557E-1,-3.713777161E-1,5.473432392E-3,8.604693291E-1
1.561749813E1,7.331806165E-1,-2.901692462E-1,-2.352217913E-1,8.228494996E-1
1.562744812E1,4.902738297E-1,-2.118504703E-1,-3.393180174E-1,6.327604339E-1
1.563739913E1,2.069756466E-1,-1.433287042E-1,-3.879399544E-1,4.624710196E-1
1.564734913E1,-1.426194370E-2,-1.228763133E-1,-4.011147545E-1,4.197559264E-1
1.565730012E1,-1.249269319E-1,-1.375194955E-1,-3.672291166E-1,4.115526382E-1
1.566725012E1,1.913092017E-2,-2.001037064E-1,-2.587416315E-1,3.276502973E-1
1.567720013E1,2.881431860E-1,-2.160750836E-1,-8.653045937E-2,3.704085012E-1
1.568715112E1,4.352146930E-1,-1.337047720E-1,4.329322323E-2,4.573435232E-1
1.569710112E1,5.759519112E-1,-1.672479093E-1,2.095266406E-1,6.352903906E-1
1.570705212E1,8.842896259E-1,-2.063608119E-1,3.355815004E-1,9.680743104E-1
1.571700212E1,1.322187021E0,-2.508186543E-1,3.220921201E-1,1.383774494E0
1.572695313E1,1.621889568E0,-4.246628076E-1,3.121711493E-1,1.705378286E0
1.573690312E1,1.670058346E0,-5.576396012E-1,2.027457708E-1,1.772332545E0
1.574685412E1,1.509803706E0,-5.249495727E-1,-7.016483366E-2,1.600000747E0
1.575680413E1,1.173447888E0,-5.058671844E-1,-3.610924637E-1,1.327881517E0
1.576675412E1,1.020818603E0,-5.904851657E-1,-3.264851332E-1,1.223656771E0
1.577670512E1,1.419614498E0,-5.961809385E-1,3.168255329E-2,1.540045720E0
1.578665513E1,2.236554140E0,-5.784059876E-1,3.672776484E-1,2.339149584E0
1.579660612E1,2.898695179E0,-6.405648136E-1,3.886018592E-1,2.993955315E0
1.580655612E1,3.395220267E0,-9.090163314E-1,2.986241738E-1,3.527464777E0
1.581650712E1,3.801892362E0,-1.196390024E0,3.000071865E-1,3.996966216E0
1.582645712E1,4.004428802E0,-1.454665632E0,4.960820152E-1,4.289242299E0
1.583640813E1,4.026435383E0,-1.501593631E0,9.042485118E-1,4.391426954E0
1.584635812E1,3.804710135E0,-1.394722316E0,9.220895362E-1,4.155877604E0
1.585630812E1,3.262860355E0,-1.493414546E0,5.983027469E-1,3.637926728E0
1.586625913E1,2.632350413E0,-1.762850150E0,2.642426920E-1,3.179108924E0
1.587620912E1,2.377329365E0,-1.944900286E0,1.731935044E-1,3.076414800E0
1.588616012E1,2.918956951E0,-2.091395257E0,4.276547547E-1,3.616231795E0
1.589611013E1,3.410137684E0,-2.362559883E0,6.300848490E-1,4.196157187E0
1.590606112E1,3.591846342E0,-2.690655924E0,6.789832132E-1,4.538943451E0
1.591601112E1,3.464655368E0,-2.864526975E0,8.797323060E-1,4.580751089E0
1.592596212E1,3.197973803E0,-2.822986016E0,9.776603043E-1,4.376311936E0
1.593591212E1,2.840282664E0,-2.844642933E0,6.910086700E-1,4.078810122E0
1.594586313E1,2.466740894E0,-3.091349825E0,5.409474085E-1,3.991726253E0
1.595581312E1,2.612151207E0,-3.488134863E0,6.056083312E-1,4.399679556E0
1.596576312E1,2.747221888E0,-3.862004077E0,5.211301349E-1,4.768005895E0
1.597571413E1,2.778644240E0,-4.125883657E0,5.227358899E-1,5.001702968E0
1.598566413E1,2.910210686E0,-4.206158327E0,4.341358817E-1,5.133183035E0
1.599561512E1,2.907260765E0,-4.366200128E0,2.913351810E-1,5.253641109E0
1.600556513E1,3.134306395E0,-4.716636041E0,4.461694515E-1,5.680633706E0
1.601551612E1,2.976879469E0,-4.894544009E0,6.662796986E-1,5.767347836E0
