"Time (s)","Linear Acceleration x (m/s^2)","Linear Acceleration y (m/s^2)","Linear Acceleration z (m/s^2)","Absolute acceleration (m/s^2)"
-6.162500358E-5,2.486627585E-2,-3.248636957E-2,-3.666145742E-2,5.493412730E-2
9.888375003E-3,2.198846817E-2,-2.273396989E-2,-4.578896105E-2,5.565029266E-2
1.983837501E-2,2.103793931E-2,-1.066522085E-2,-5.814471245E-3,2.429300109E-2
2.978937500E-2,-1.404574290E-3,-9.095572354E-4,-4.233384132E-4,1.726076103E-3
3.973937500E-2,-1.542805666E-2,6.177770630E-3,2.591719866E-2,3.078783800E-2
4.968937501E-2,-7.310216418E-3,7.934609971E-3,-4.921016693E-3,1.185806497E-2
5.963937499E-2,1.812696238E-3,2.734745730E-2,-5.955389142E-2,6.555787727E-2
6.958937499E-2,-1.099203452E-3,1.430600567E-2,-1.209847391E-2,1.876814102E-2
7.954037501E-2,-1.477990194E-2,1.888203664E-2,1.095125020E-2,2.636108286E-2
8.949037499E-2,-1.229543371E-2,2.891029014E-2,-7.297325134E-4,3.142475259E-2
9.944037499E-2,4.357564375E-3,3.228845046E-2,-2.303393662E-2,3.990106059E-2
1.093903750E-1,3.930178592E-3,4.055065982E-2,-3.395828962E-2,5.303741839E-2
1.193413750E-1,3.020255906E-3,2.555859532E-2,1.371172071E-3,2.577292869E-2
1.292913750E-1,-9.358843239E-3,2.111292756E-2,1.379358172E-2,2.689993595E-2
1.392413750E-1,-7.707013953E-3,9.201811238E-3,-1.360120833E-2,1.814012850E-2
1.491913750E-1,1.986664608E-3,5.367031340E-3,-2.258194685E-2,2.329584051E-2
1.591423750E-1,1.171646800E-2,-6.573981161E-3,-2.257902324E-2,2.627365870E-2
1.690923750E-1,9.576916974E-4,-1.141127989E-2,-6.262367964E-3,1.305188625E-2
1.790423750E-1,4.808992264E-3,-3.729715026E-3,9.215211868E-4,6.155191473E-3
1.889923750E-1,1.458047991E-2,-4.747347536E-3,-2.168089092E-2,2.655538992E-2
1.989423750E-1,1.323215766E-2,-2.137177878E-3,-1.733757913E-2,2.191458819E-2
2.088933750E-1,1.922219612E-2,1.185639918E-2,-5.061349869E-3,2.314485445E-2
2.188433750E-1,1.792895190E-2,1.464637529E-2,-8.953256607E-3,2.482185386E-2
2.287933750E-1,1.601377408E-2,1.517507778E-2,-1.808543801E-2,2.852730296E-2
2.387433750E-1,6.289603198E-3,3.023269277E-2,-2.317543924E-2,3.860927097E-2
2.486943750E-1,1.243249610E-2,2.942400914E-2,-2.033018410E-2,3.786364561E-2
2.586443750E-1,3.483524406E-3,1.935589408E-2,-2.665160894E-3,1.984662844E-2
2.685943750E-1,3.378365887E-4,2.009352490E-2,-6.407378912E-3,2.109308847E-2
2.785443750E-1,-1.598540138E-2,9.958749292E-3,-1.538928688E-2,2.432159319E-2
2.884943750E-1,-5.357049960E-3,6.441169423E-3,-1.942971289E-2,2.115893170E-2
2.984453750E-1,-1.591926845E-2,-7.021772813E-3,-1.972792089E-2,2.630435827E-2
3.083953750E-1,-1.919635874E-2,-9.326724666E-3,-9.549087882E-3,2.338104063E-2
3.183453750E-1,-1.808570753E-2,-1.410050344E-2,-1.673356175E-2,2.838889049E-2
3.282953750E-1,-2.287141143E-2,-6.297912640E-3,-1.343982518E-2,2.726525381E-2
3.382463750E-1,-4.541427330E-3,-6.469713429E-3,-2.511963844E-3,8.294077188E-3
3.481963750E-1,2.601449084E-3,-1.183003189E-2,-9.846711159E-3,1.561009009E-2
3.581463750E-1,1.241714259E-2,-5.471707920E-3,-1.029636204E-2,1.703349902E-2
3.680963750E-1,2.490142310E-2,-4.834806807E-3,-7.901927233E-3,2.656871625E-2
3.780473750E-1,2.109217223E-2,4.514619217E-3,-1.643476903E-2,2.711758008E-2
3.879973750E-1,2.273291008E-2,1.212693797E-2,-4.609360099E-3,2.617430087E-2
3.979473750E-1,2.373153229E-2,2.360536947E-2,-1.823161840E-2,3.811549557E-2
4.078973750E-1,1.249545874E-2,2.203705030E-2,-1.463967383E-2,2.925898366E-2
4.178473750E-1,1.601071799E-2,1.753542059E-2,-1.853158057E-2,3.012064980E-2
4.277983750E-1,-1.542614261E-4,1.782184051E-2,-2.646449804E-2,3.190629174E-2
4.377483750E-1,-1.274636367E-2,2.197046285E-2,-9.847880602E-3,2.724246276E-2
4.476983750E-1,-1.302506573E-2,1.778655850E-2,-8.350993395E-3,2.357441603E-2
4.576483750E-1,-1.850507624E-2,1.466016421E-2,-7.752823234E-3,2.484883356E-2
4.675993750E-1,-1.525527143E-2,9.143451001E-3,-1.149445653E-2,2.117660345E-2
4.775493750E-1,-1.083646204E-2,1.210156654E-2,-2.272111058E-2,2.793073018E-2
4.874993750E-1,-3.185659018E-3,6.574632120E-3,-6.405040026E-3,9.715901843E-3
4.974493750E-1,4.611411192E-3,3.096338231E-3,-1.793165624E-2,1.877223266E-2
5.073993750E-1,8.934910968E-3,-5.621565662E-3,-1.359126806E-2,1.720921852E-2
5.173503750E-1,1.291543500E-2,-2.113115215E-2,-2.017874122E-2,3.194551063E-2
5.273003750E-1,2.320405405E-2,-1.122546177E-2,-2.212469459E-2,3.396971043E-2
5.372503750E-1,2.209403325E-2,-1.251902804E-2,-3.264500499E-3,2.560330705E-2
5.472003750E-1,2.692215230E-2,-9.424133340E-3,-8.204228282E-3,2.968039649E-2
5.571513750E-1,1.937399075E-2,-3.659847651E-3,-6.108001471E-3,2.064106791E-2
5.671013750E-1,7.301920680E-3,7.332312497E-3,-2.364614010E-3,1.061471863E-2
5.770513750E-1,-2.103672875E-4,1.827881868E-2,-1.299251318E-2,2.242687819E-2
5.870013750E-1,2.830280783E-3,2.181792818E-2,-1.119566381E-2,2.468552952E-2
5.969523750E-1,-1.100617291E-2,2.915106066E-2,-1.942854345E-2,3.672040959E-2
6.069023750E-1,-1.835385262E-2,1.935802283E-2,-2.840986669E-2,3.897072593E-2
6.168523750E-1,-2.111671683E-2,2.136896937E-2,-2.047636449E-2,3.635698124E-2
6.268023750E-1,-2.105346641E-2,2.177240213E-2,-1.823161840E-2,3.535078290E-2
6.367523750E-1,-1.274843761E-2,1.361137472E-2,-6.107416749E-3,1.962377952E-2
6.467033750E-1,-1.190424585E-2,1.557182964E-2,-6.108001471E-3,2.053048050E-2
6.566533750E-1,3.949163770E-3,5.402100929E-3,-1.613714576E-2,1.746957533E-2
6.666033750E-1,7.813524641E-3,2.059204343E-3,-1.074718237E-2,1.344594432E-2
6.765533750E-1,2.603616666E-2,-3.570707305E-4,-9.998154044E-3,2.789215943E-2
6.865040000E-1,2.571261006E-2,-3.908884220E-3,-7.602549791E-3,2.709642883E-2
6.964540000E-1,2.268748452E-2,-7.535156063E-3,-1.598511815E-2,2.875803424E-2
7.064040000E-1,1.065504304E-2,-5.684498604E-3,-1.179324925E-2,1.687969770E-2
7.163540000E-1,1.019143650E-2,-1.401837976E-3,-2.513133287E-3,1.058991816E-2
7.263050000E-1,6.846788032E-3,-5.743244849E-3,-1.463791966E-2,1.715027871E-2
7.362550000E-1,3.155943286E-4,1.490338782E-3,-1.733114719E-2,1.739797036E-2
7.462050000E-1,-7.133648777E-3,1.149336474E-2,-7.451106906E-3,1.544361914E-2
7.561550000E-1,-1.443240831E-2,3.016697327E-2,-1.747908175E-2,3.773405603E-2
7.661050000E-1,-1.589988585E-2,2.338754699E-2,-5.803361535E-3,2.886975457E-2
7.760560000E-1,-1.272395239E-2,2.345811329E-2,-7.300248742E-3,2.766723107E-2
7.860060000E-1,-1.308346936E-2,2.939880445E-2,-8.048107624E-3,3.316984941E-2
7.959560000E-1,-7.770355744E-3,2.554483380E-2,-2.648788691E-4,2.670181873E-2
8.059060000E-1,-7.724181013E-3,1.485913856E-2,-6.253012419E-3,1.787616109E-2
8.158570000E-1,6.467902162E-3,7.010617421E-3,-1.927593112E-2,2.150683695E-2
8.258070000E-1,1.512908578E-2,-2.085000614E-3,-1.762350798E-3,1.537342982E-2
8.357570000E-1,1.018569892E-2,-7.408157280E-3,-1.718028903E-2,2.130238456E-2
8.457070000E-1,1.703846207E-2,-2.595647093E-2,-1.373803318E-2,3.395263066E-2
8.556580000E-1,1.653281953E-2,-1.605326105E-2,-2.360520959E-3,2.316491682E-2
8.656080000E-1,1.895997591E-2,-1.300115153E-2,-5.653088093E-3,2.367420606E-2
8.755580000E-1,1.093786555E-2,-2.862611774E-3,-8.197796345E-3,1.396550443E-2
8.855080000E-1,7.296708436E-3,1.103616273E-3,-1.193767548E-2,1.403452951E-2
8.954580000E-1,-4.766759835E-4,7.816994141E-3,-1.508055389E-2,1.699281386E-2
9.054090000E-1,-9.568918166E-3,1.396795209E-2,-1.448121428E-2,2.227944002E-2
9.153590000E-1,-1.657769234E-2,2.204794303E-2,-1.148743987E-2,2.988131440E-2
9.253090000E-1,-1.709014598E-2,2.215230441E-2,-2.166685760E-2,3.538715019E-2
9.352590000E-1,-1.243604098E-2,1.928258461E-2,-1.388421357E-2,2.681873544E-2
9.452100000E-1,-1.175013974E-2,2.566334270E-2,-1.403448701E-2,3.152205209E-2
9.551600000E-1,2.704168218E-3,2.620101931E-2,-1.807608247E-2,3.194605916E-2
9.651100000E-1,4.246572345E-3,1.561570888E-2,-1.657977998E-2,2.316835870E-2
9.750600000E-1,5.435315855E-3,-2.217807784E-3,-9.844372272E-3,1.146180593E-2
9.850110000E-1,1.282614619E-2,6.001920188E-3,-1.942445040E-2,2.403835155E-2
9.949610000E-1,2.384916639E-2,-7.147321212E-3,-2.359351516E-3,2.500866805E-2
1.004911000E0,1.983695319E-2,-1.254118807E-2,3.356301785E-4,2.347123256E-2
1.014861000E0,1.611586281E-2,-8.180812011E-3,-1.343573213E-2,2.252033785E-2
1.024811000E0,1.210296439E-2,-8.069431689E-3,-1.104071259E-2,1.826184025E-2
1.034762000E0,1.033959946E-2,3.444032860E-4,-1.433386445E-2,1.767726225E-2
1.044712000E0,-1.546597676E-3,-4.814588232E-4,-1.418300629E-2,1.427520348E-2
1.054662000E0,-7.949403883E-3,1.783423615E-3,-7.596702576E-3,1.113927789E-2
1.064612000E0,-4.596578451E-3,8.472980931E-3,-1.657744110E-2,1.917632636E-2
1.074563000E0,-4.713230403E-3,1.442917863E-2,-7.895495296E-3,1.711007256E-2
1.084513000E0,-1.134791526E-2,1.876730787E-2,-1.582899749E-2,2.704707354E-2
1.094463000E0,-1.960050641E-3,2.674121524E-2,-2.241588593E-2,3.494862419E-2
1.104413000E0,-1.253090291E-3,2.239857497E-2,-1.014082611E-2,2.461915413E-2
1.114364000E0,6.787977833E-4,2.113134629E-2,-7.297909856E-3,2.236635980E-2
1.124314000E0,1.695550013E-2,1.462374702E-2,-1.059164643E-2,2.476945570E-2
1.134264000E0,1.149376674E-2,1.440882530E-2,-5.652503371E-3,1.927878924E-2
1.144214000E0,1.437626133E-2,9.748032542E-3,-7.148805857E-3,1.878314280E-2
1.154164000E0,2.003105791E-2,2.826073528E-3,2.431272268E-3,2.037501061E-2
1.164115000E0,1.738134189E-2,6.077248771E-3,-1.088985443E-2,2.139235676E-2
1.174065000E0,1.051076756E-2,-1.006150497E-3,-7.147051692E-3,1.275025182E-2
1.184015000E0,1.245442316E-2,-4.766501735E-3,-1.208677948E-2,1.799784524E-2
1.193965000E0,2.561729131E-3,-1.198884547E-2,-2.046934783E-2,2.385977939E-2
1.203916000E0,-1.136716995E-3,-8.580195112E-4,-2.510911345E-2,2.514947120E-2
1.213866000E0,-7.765097818E-3,-1.703979140E-3,-1.103778899E-2,1.360268631E-2
1.223816000E0,-7.206775518E-3,-8.651389531E-3,-1.268436491E-2,1.696105149E-2
1.233766000E0,-9.993873700E-3,8.747251891E-4,-8.793042898E-3,1.334017463E-2
1.243717000E0,-1.543176142E-3,1.669621266E-2,-1.567813933E-2,2.295536893E-2
1.253667000E0,6.081058597E-3,1.531737754E-2,-1.941977262E-2,2.547015699E-2
1.263617000E0,2.622485356E-3,3.433183534E-3,-1.193475187E-2,1.269261521E-2
1.273567000E0,2.256079637E-3,8.714660516E-3,-1.343222380E-2,1.616971983E-2
1.283517000E0,8.780215569E-3,1.922552173E-2,-1.582724333E-2,2.640481968E-2
1.293468000E0,1.933054320E-2,1.435774667E-3,-1.073782682E-2,2.215924805E-2
1.303418000E0,1.795536487E-2,1.332556693E-2,-1.926949918E-2,2.951744333E-2
1.313368000E0,2.018320885E-2,1.213534563E-2,-1.133599699E-2,2.613682002E-2
1.323318000E0,1.395511562E-2,4.325569142E-3,-5.048485994E-3,1.545778158E-2
1.333269000E0,1.898892419E-3,5.390719415E-3,-5.198174715E-3,7.725714763E-3
1.343219000E0,8.189162565E-4,5.185235466E-3,-1.208385587E-2,1.317485724E-2
1.353169000E0,-4.226591312E-3,2.331954113E-3,-5.497552156E-3,7.316089380E-3
1.363119000E0,2.460078942E-3,2.661207172E-3,-1.005721092E-3,3.761048647E-3
1.373070000E0,-9.359222394E-3,-2.193187808E-3,-1.657334805E-2,1.915935756E-2
1.383020000E0,-1.052692963E-2,4.598812270E-4,-1.567521572E-2,1.888756538E-2
1.392970000E0,-3.975581308E-3,-5.778474323E-3,-5.795760155E-3,9.098727824E-3
1.402920000E0,1.150471657E-3,4.660363351E-3,-3.102532625E-3,5.715617227E-3
1.412871000E0,2.891219733E-3,9.133853344E-4,-1.402922451E-2,1.435313780E-2
1.422821000E0,-2.529939464E-3,6.639682394E-3,-1.223295987E-2,1.414677642E-2
1.432771000E0,7.454016809E-3,1.108159286E-2,-1.402922451E-2,1.936964655E-2
1.442721000E0,1.401448770E-2,1.366373928E-2,-2.076521695E-2,2.853590495E-2
1.452671000E0,1.273713604E-2,1.564914765E-2,-2.750120938E-2,3.410933851E-2
1.462622000E0,1.963262955E-2,1.517852216E-2,-1.268319547E-2,2.786917877E-2
1.472572000E0,9.604115663E-3,4.846969473E-3,-2.196389616E-2,2.445700074E-2
1.482522000E0,4.707986182E-3,1.488865786E-2,-1.208502531E-2,1.974550844E-2
1.492472000E0,2.797933803E-3,1.170391019E-2,-6.396269202E-3,1.362799351E-2
1.502423000E0,-1.637951285E-4,-2.875535034E-3,-7.743467689E-3,8.261768722E-3
1.512373000E0,-1.149452962E-3,7.759757666E-3,-1.373160124E-2,1.581429587E-2
1.522323000E0,-1.815866525E-3,-2.068162460E-3,-1.028934538E-2,1.065107016E-2
1.532273000E0,4.303751718E-3,-3.751121317E-3,-1.941977262E-2,2.024156019E-2
1.542224000E0,-3.335621827E-3,-2.598109776E-3,-8.042260408E-3,9.085950686E-3
1.552174000E0,-2.897679079E-3,-9.659849221E-3,-2.360988736E-2,2.567364431E-2
1.562124000E0,-3.573790798E-4,-1.110293976E-2,-1.837078214E-2,2.146831683E-2
1.572074000E0,-1.268905182E-3,1.902974050E-3,-2.181479216E-2,2.193437000E-2
1.582025000E0,8.981241016E-3,6.713444106E-3,-1.103837371E-2,1.573463429E-2
1.591975000E0,9.787119809E-3,1.236267898E-2,-1.672654510E-2,2.298697145E-2
1.601925000E0,1.167296106E-2,2.163172634E-2,-1.582899749E-2,2.923605250E-2
1.611875000E0,1.335919756E-2,1.514868766E-2,-9.691759944E-3,2.240270314E-2
1.621826000E0,3.839373160E-3,1.962314153E-2,-4.901136160E-3,2.058712232E-2
1.631776000E0,9.851663020E-3,1.620815288E-2,-2.570786834E-2,3.194767564E-2
1.641726000E0,7.371150800E-3,1.409969717E-2,-1.208561003E-2,1.997992228E-2
1.651676000E0,1.170631760E-2,8.054690310E-3,-1.522907317E-2,2.082884004E-2
1.661626000E0,4.021650972E-3,1.521237663E-2,-1.418125212E-2,2.118249256E-2
1.671577000E0,-6.702151671E-3,-5.103127768E-3,-2.076755583E-2,2.241098225E-2
1.681526917E0,1.687378529E-4,-5.141956934E-3,-2.436008513E-2,2.489742840E-2
1.691476917E0,-3.621162381E-3,-2.387735636E-3,-1.133775115E-2,1.213913916E-2
1.701426917E0,2.116344888E-3,-4.483153888E-3,-1.942094207E-2,2.004371660E-2
1.711377917E0,-9.697744204E-4,-2.187817963E-3,-1.927066863E-2,1.941869406E-2
1.721327917E0,5.893308157E-3,-2.988660384E-3,-1.208619475E-2,1.377458804E-2
1.731277917E0,-2.116427114E-3,-1.137580373E-3,-2.585814178E-2,2.596953695E-2
1.741227917E0,2.351937429E-3,9.568676054E-3,-2.480973601E-2,2.669483418E-2
1.751178917E0,1.235041581E-2,2.869829431E-3,-2.510969818E-2,2.812944426E-2
1.761128917E0,1.007169192E-2,1.475187185E-2,-1.687681854E-2,2.457404535E-2
1.771078917E0,1.245569310E-2,1.344680072E-2,-1.208619475E-2,2.195533748E-2
1.781028917E0,9.803720419E-3,1.894367223E-2,-7.147051692E-3,2.249568846E-2
1.790979917E0,3.307578033E-3,1.216630618E-2,-1.043961883E-2,1.636901706E-2
1.800929917E0,4.321910064E-3,1.025078117E-2,1.534894109E-3,1.123001875E-2
1.810879917E0,4.431536221E-3,1.385208357E-2,-1.493086517E-2,2.084345142E-2
1.820829917E0,-7.451545447E-4,9.514274108E-3,-1.567930877E-2,1.835530960E-2
1.830780917E0,-4.906672742E-3,2.756605865E-3,-1.852280974E-2,1.935894610E-2
1.840730917E0,-6.910518114E-3,4.980662861E-4,-1.088926971E-2,1.290656908E-2
1.850680917E0,-7.755623502E-3,-4.244900406E-3,-2.017055511E-2,2.202317345E-2
1.860630917E0,7.106596269E-3,4.901332590E-3,-2.391218841E-2,2.542281507E-2
1.870581917E0,-3.418309679E-3,5.970164782E-3,-7.744637132E-3,1.035891466E-2
1.880531917E0,8.332327986E-4,-1.215983313E-3,-1.103778899E-2,1.113578367E-2
1.890481917E0,1.084704642E-2,7.660832370E-3,-1.283346891E-2,1.846739540E-2
1.900431917E0,3.909818404E-3,2.682398760E-3,-1.058813810E-2,1.160131939E-2
1.910382917E0,1.032981451E-2,1.371595994E-2,-5.498721600E-3,1.802965790E-2
1.920332917E0,8.212551428E-3,4.833340435E-4,-8.642769456E-3,1.193218658E-2
1.930282917E0,6.393194846E-3,-1.871120429E-3,-1.298315763E-2,1.459234094E-2
1.940232917E0,-7.371603046E-5,9.730949993E-3,-2.136397183E-2,2.347586237E-2
1.950183917E0,4.599406128E-3,1.142870276E-2,-5.647240877E-3,1.355216267E-2
1.960133917E0,7.189466846E-3,1.200698325E-2,2.286846042E-3,1.418047056E-2
1.970083917E0,2.963081100E-3,8.571385460E-3,-2.271117032E-2,2.445497404E-2
1.980033917E0,2.649574410E-3,6.648850646E-3,-7.891986966E-3,1.065415026E-2
1.989984917E0,-6.322699352E-3,8.710236275E-3,-2.952259183E-3,1.116067101E-2
1.999934917E0,-5.061212825E-3,4.229830122E-3,-1.807081997E-2,1.923699230E-2
2.009884917E0,-6.991552301E-3,6.581287896E-3,-1.432918668E-2,1.724878966E-2
2.019834917E0,-3.338248506E-3,6.056746971E-3,-2.495591640E-2,2.589644475E-2
2.029784917E0,-3.826271743E-5,4.247205032E-3,-7.142373919E-3,8.309856787E-3
2.039735917E0,2.888876279E-3,3.344173380E-3,-1.507587612E-2,1.571022414E-2
2.049685917E0,6.332379235E-3,9.305706667E-4,-9.836770892E-3,1.173571686E-2
2.059635917E0,2.582724290E-3,8.631997788E-3,-8.339883685E-3,1.227743908E-2
2.069585917E0,1.496052152E-2,-5.369388498E-5,-1.402863979E-2,2.050909119E-2
2.079536917E0,1.309848483E-2,-3.185711552E-3,-1.903268695E-3,1.361401831E-2
2.089486917E0,6.976587083E-3,7.736526404E-3,-1.283054531E-2,1.652723513E-2
2.099436917E0,1.232806848E-2,-8.230504207E-4,-2.750003994E-2,3.014814888E-2
2.109386917E0,6.335147526E-3,-2.091782014E-3,-9.837940335E-3,1.188674540E-2
2.119337917E0,3.053763192E-3,1.110745080E-2,-1.971681118E-2,2.283535802E-2
2.129287917E0,3.657374005E-3,1.413055493E-2,-1.582490444E-2,2.152850594E-2
2.139237917E0,-3.727481207E-3,1.047874721E-2,-1.642424405E-2,1.983567623E-2
2.149188917E0,-3.590811677E-3,1.597387140E-2,-1.193358243E-2,2.026003172E-2
2.159138917E0,-6.181374891E-4,1.882778772E-2,-1.507763028E-2,2.412887522E-2
2.169088917E0,3.187769498E-3,1.956336745E-3,-1.702299893E-2,1.742904531E-2
2.179038917E0,1.277036467E-3,1.408129443E-2,-9.538562894E-3,1.705572798E-2
2.188989917E0,3.169944626E-3,3.880774188E-3,-1.747323453E-2,1.817753785E-2
2.198939917E0,2.675521430E-3,-1.661344715E-3,-4.749108553E-3,5.698465866E-3
2.208889917E0,4.211511891E-3,-1.049141237E-3,-1.163478971E-2,1.241796526E-2
2.218839917E0,2.699024496E-3,-1.006914518E-2,-9.988798499E-3,1.443774613E-2
2.228790917E0,7.062193975E-3,5.596127990E-3,-7.294401526E-3,1.159308095E-2
2.238740917E0,1.261921871E-2,9.281495539E-4,-1.627630949E-2,2.061611974E-2
2.248690917E0,1.359613770E-2,3.166783475E-3,-5.349032879E-3,1.494977025E-2
2.258640917E0,9.236823726E-3,2.849485232E-3,-1.313343108E-2,1.630722203E-2
2.268591917E0,4.622397562E-3,7.393386208E-3,-1.927008390E-2,2.115100122E-2
2.278541917E0,5.054684957E-3,3.318100737E-3,-8.492496014E-3,1.042507175E-2
2.288491917E0,7.352416869E-4,1.583232081E-2,-2.316140592E-2,2.806516857E-2
2.298441917E0,-7.831614465E-5,1.445393337E-2,-1.822109342E-2,2.325791411E-2
2.308392917E0,-3.428240810E-3,5.388508437E-3,-1.283229947E-2,1.433376322E-2
2.318342917E0,-3.329865974E-3,1.145330447E-2,-6.095722318E-3,1.339492520E-2
2.328292917E0,-9.123940486E-4,1.548120008E-2,-1.028759122E-2,1.861006588E-2
2.338242917E0,8.248913800E-4,1.426798734E-2,-8.193118572E-3,1.647370937E-2
2.348193917E0,-8.160063531E-4,7.646767076E-3,-1.657568693E-2,1.827272039E-2
2.358143917E0,1.833833009E-4,3.113429917E-3,-1.462973356E-2,1.495848185E-2
2.368093917E0,6.922938880E-3,6.907500860E-3,-1.013965666E-2,1.408734496E-2
2.378043917E0,9.623132818E-3,5.215040278E-3,-1.178681731E-2,1.608509847E-2
2.387994917E0,1.121293594E-2,-7.655999281E-3,-2.106868744E-2,2.506459351E-2
2.397944917E0,4.517718698E-3,-5.693840445E-4,-1.388362885E-2,1.461126724E-2
2.407894917E0,-8.317116089E-4,4.851553598E-3,-7.896080017E-3,9.304697532E-3
2.417844917E0,1.015283117E-2,1.949948205E-3,-1.116818190E-4,1.033899181E-2
2.427795917E0,2.788212807E-3,-2.137666668E-3,3.930498362E-3,5.271865591E-3
2.437745917E0,4.212544290E-3,1.129032247E-2,-1.014082611E-2,1.574970682E-2
2.447695917E0,2.172112707E-3,1.297787230E-2,-1.567930877E-2,2.046909785E-2
2.457645917E0,-3.375159055E-3,8.843153080E-3,-1.358366668E-2,1.655623917E-2
2.467596917E0,3.789123651E-3,1.204878399E-2,-1.478117645E-2,1.944257779E-2
2.477546917E0,5.179079901E-3,2.147571532E-2,-1.193709075E-2,2.511022407E-2
2.487496917E0,-2.412136341E-3,9.511318523E-3,-1.597810149E-2,1.875055490E-2
2.497446917E0,3.490011161E-3,1.150135670E-2,-1.418183684E-2,1.858994029E-2
2.507397917E0,7.139948239E-3,2.939740203E-3,-7.594948411E-3,1.083070518E-2
2.517347917E0,6.605727430E-3,1.067936837E-2,-1.298432708E-2,1.806314738E-2
2.527297917E0,2.507573864E-3,6.873248967E-3,-2.151716888E-2,2.272703312E-2
2.537247917E0,1.286300192E-2,-3.769366457E-3,-1.927242279E-2,2.347533220E-2
2.547198917E0,1.083960035E-2,-4.056935264E-3,-9.392382503E-3,1.490545231E-2
2.557148917E0,-2.785883057E-3,-3.696061559E-3,-1.608569026E-3,4.899949976E-3
2.567098917E0,4.033267745E-3,-4.369966867E-3,-6.698570251E-3,8.957382572E-3
2.577048917E0,8.031324288E-3,2.062376915E-3,-1.268670380E-2,1.515612159E-2
2.586999917E0,-1.568972412E-4,8.203332927E-3,-1.298549652E-2,1.536041691E-2
2.596949917E0,3.315325594E-4,-2.765397246E-3,-1.358425140E-2,1.386683893E-2
2.606899917E0,-1.988647180E-3,1.087052893E-2,-1.103954315E-2,1.562032745E-2
2.616849917E0,-2.919482798E-3,6.136344478E-3,-2.421215057E-2,2.514769053E-2
2.626800917E0,-2.601965284E-3,1.035629829E-2,-1.059047699E-2,1.503932646E-2
2.636750917E0,-2.435337910E-3,1.090054159E-2,-1.238732636E-2,1.667928452E-2
2.646700917E0,-1.499783406E-3,1.309639262E-2,-1.148919404E-2,1.748617824E-2
2.656651917E0,1.062822808E-3,2.017010515E-2,-2.196740448E-2,2.984174248E-2
2.666601917E0,-1.797424955E-3,1.144927994E-2,-8.943901062E-3,1.463933447E-2
2.676551917E0,1.410924001E-3,-6.031517149E-4,-1.523082733E-2,1.530792604E-2
2.686501917E0,5.914892606E-3,-4.308073176E-3,-1.313576996E-2,1.503641917E-2
2.696452917E0,3.924020743E-3,-1.416392061E-3,-1.298608124E-2,1.363973648E-2
2.706402917E0,1.219885415E-2,4.574363600E-3,-7.746976018E-3,1.515758828E-2
2.716352917E0,7.510118103E-3,-1.239963749E-3,-8.794797063E-3,1.163133008E-2
2.726302917E0,-2.692418969E-3,1.581121373E-3,-1.762701631E-2,1.790141806E-2
2.736253917E0,4.270267272E-3,3.018659342E-3,-1.957296968E-2,2.025953180E-2
2.746203917E0,3.073899541E-3,-7.865464361E-4,-1.912448823E-2,1.938591148E-2
2.756153917E0,3.912655218E-3,4.829811549E-3,-7.896664739E-3,1.004954051E-2
2.766103917E0,-4.041568050E-4,1.438399290E-2,-8.045768738E-3,1.648626668E-2
2.776054917E0,-4.637550074E-3,6.968193131E-3,-7.597287297E-3,1.130404178E-2
2.786004917E0,2.882686453E-3,1.127693097E-2,-2.059974074E-3,1.182042920E-2
2.795954917E0,-7.700193725E-3,2.309419492E-3,-1.433386445E-2,1.643429560E-2
2.805904917E0,8.732821145E-3,6.943776438E-3,-1.553195894E-2,1.912380571E-2
2.815855917E0,4.047150314E-3,9.338441938E-3,-1.568106294E-2,1.869442854E-2
2.825805917E0,6.427862439E-3,6.828828400E-3,-5.951296091E-3,1.110712555E-2
2.835755917E0,7.415827182E-3,9.932633252E-3,1.533724666E-3,1.249015642E-2
2.845706917E0,1.422535749E-2,1.283219212E-2,-9.991722107E-3,2.160695399E-2
2.855656917E0,1.402802766E-2,6.708284395E-3,-1.298608124E-2,2.025894730E-2
2.865606917E0,8.015934234E-3,4.580263349E-3,2.582130432E-3,9.586522391E-3
2.875556917E0,4.857469336E-3,-6.069293360E-3,-8.794212341E-3,1.173752533E-2
2.885507917E0,6.174746524E-3,-6.207943177E-3,-7.297325134E-3,1.139811420E-2
2.895457917E0,3.225260200E-3,1.186169365E-3,-1.777612031E-2,1.810524107E-2
2.905407917E0,5.024594637E-3,3.970275417E-3,-2.062079072E-2,2.159228214E-2
2.915357917E0,-2.363225296E-3,1.778005804E-3,-5.951880813E-3,6.646128471E-3
2.925308917E0,-8.988307924E-3,-4.506015130E-3,-7.748145461E-3,1.269360507E-2
2.935258917E0,-2.658582777E-3,9.505041903E-3,-1.148977876E-2,1.514691057E-2
2.945208917E0,3.904368617E-3,-5.648798612E-4,-5.353125930E-3,6.649747422E-3
2.955158917E0,7.513809158E-3,7.676156186E-3,-7.448768020E-3,1.307152810E-2
2.965109917E0,1.841443526E-3,1.010984043E-2,-1.044254243E-2,1.465081842E-2
2.975059917E0,1.021707288E-2,7.255129251E-3,-2.271701753E-2,2.594394658E-2
2.985009917E0,9.166794182E-3,1.088056741E-2,-1.149036348E-2,1.828784612E-2
2.994960917E0,7.699714070E-3,1.139457193E-2,-1.253759980E-2,1.860949421E-2
3.004910917E0,9.268499189E-3,4.728522243E-3,-1.044254243E-2,1.474146167E-2
3.014860917E0,1.097817936E-2,5.604869120E-3,-1.298842013E-2,1.790625694E-2
3.024810917E0,1.278158401E-2,7.728123316E-3,-8.047522902E-3,1.696630203E-2
3.034761917E0,4.288594639E-3,6.623762436E-3,-1.134067476E-2,1.381583066E-2
3.044711917E0,4.946538876E-3,5.798041939E-3,-7.597872019E-3,1.076165398E-2
3.054661917E0,3.843630664E-5,2.141188702E-3,-1.074133515E-2,1.095273698E-2
3.064611917E0,-4.322709488E-3,1.179595815E-3,-1.343573213E-2,1.416319743E-2
3.074562917E0,-3.793783151E-3,-2.244417183E-4,-5.052579045E-3,6.322319170E-3
3.084512917E0,8.584210505E-3,-3.270729154E-3,-1.538110077E-2,1.791548493E-2
3.094462917E0,-6.187208402E-3,7.630383451E-3,-7.297909856E-3,1.223780159E-2
3.104412917E0,-2.031281604E-3,7.429022247E-3,-1.133892059E-2,1.370720966E-2
3.114363917E0,7.011770876E-4,1.408813521E-4,-4.602928162E-3,4.658158920E-3
3.124313917E0,-7.328982325E-4,8.794504702E-3,-6.997362971E-3,1.126248380E-2
3.134263917E0,5.047960659E-3,9.772113478E-3,-7.296740413E-3,1.319918669E-2
3.144214917E0,1.945103696E-3,8.210961716E-3,-1.208677948E-2,1.474088053E-2
3.154164917E0,5.705964281E-3,9.192024004E-3,-2.506701350E-3,1.110562404E-2
3.164114917E0,-4.340141499E-4,1.341496537E-2,-1.208677948E-2,1.806211234E-2
3.174064917E0,6.763944863E-3,5.797025529E-3,-2.585755706E-2,2.734903494E-2
3.184015917E0,-2.474116827E-3,-3.546464201E-3,-1.956946135E-2,2.004151890E-2
3.193965917E0,9.765919084E-3,1.259474263E-3,-1.702592254E-2,1.966828638E-2
3.203915917E0,8.754090392E-3,2.703151808E-3,-4.601173997E-3,1.025241096E-2
3.213866917E0,6.134176897E-3,5.647103833E-3,-1.792405486E-2,1.976840030E-2
3.223816917E0,-1.804857315E-3,5.858996878E-3,-1.388245940E-2,1.517590305E-2
3.233766917E0,8.733912930E-4,-5.159777238E-3,-1.283463836E-2,1.386052146E-2
3.243716917E0,6.282065772E-3,-4.884124417E-3,-8.194872737E-3,1.142256367E-2
3.253667917E0,-1.072246875E-3,4.959238297E-4,-2.630662322E-2,2.633313652E-2
3.263617917E0,-1.752067921E-3,-2.762649511E-4,-1.822343230E-2,1.830954803E-2
3.273567917E0,-2.563853315E-3,6.515536413E-3,-1.343339324E-2,1.514865052E-2
3.283517917E0,-2.104403777E-3,2.647281205E-4,-9.840863943E-3,1.006683661E-2
3.293468917E0,7.379441969E-3,1.397590522E-2,-1.478117645E-2,2.163943778E-2
3.303418917E0,1.294195304E-2,7.690568659E-3,-1.118806243E-2,1.875664511E-2
3.313368917E0,9.387156554E-3,1.166587131E-2,-2.506116629E-3,1.518195910E-2
3.323318917E0,5.819194699E-3,1.148738505E-2,-1.582899749E-2,2.040539644E-2
3.333269917E0,-1.177432803E-3,6.912254007E-3,-1.463207245E-2,1.622538590E-2
3.343219917E0,6.324270791E-3,2.111836136E-3,-9.094174504E-3,1.127653594E-2
3.353169917E0,-4.470173526E-3,3.876100983E-3,-1.029109955E-2,1.187069249E-2
3.363120917E0,-4.781323057E-3,6.208984712E-3,-9.092420340E-3,1.200352652E-2
3.373070917E0,-3.984055202E-3,2.403207917E-3,-9.690590501E-3,1.074968132E-2
3.383020917E0,3.403938320E-3,4.021370031E-3,-2.451035857E-2,2.507021919E-2
3.392970917E0,4.337080847E-3,5.377108650E-3,-4.153277278E-3,8.060600465E-3
3.402921917E0,-6.704216469E-3,-4.597640543E-3,-7.895495296E-3,1.133241647E-2
3.412871917E0,-5.846347706E-4,-9.084019535E-3,-1.717619598E-2,1.943921081E-2
3.422821917E0,-2.162140463E-3,1.986415645E-3,-1.103895843E-2,1.142275368E-2
3.432772917E0,1.778924000E-4,1.316185403E-3,-1.268553436E-2,1.275487247E-2
3.442722917E0,7.468100376E-3,3.208257593E-3,-1.822343230E-2,1.995392004E-2
3.452672917E0,3.452255507E-3,9.387499164E-3,-1.268553436E-2,1.615444182E-2
3.462622917E0,9.856975763E-3,9.779913572E-3,-1.747615814E-2,2.232090464E-2
3.472573917E0,4.635416754E-3,1.273044600E-2,-1.927183807E-2,2.355748472E-2
3.482523917E0,5.301263868E-3,9.101031278E-3,-1.882277191E-2,2.156916575E-2
3.492473917E0,7.654827554E-3,2.992888195E-3,-4.601758718E-3,9.419657527E-3
3.502423917E0,5.658734310E-3,1.087208209E-2,-1.403273284E-2,1.863172118E-2
3.512374917E0,7.168910229E-3,-2.561377385E-3,-2.106751800E-2,2.240076433E-2
3.522324917E0,8.829432679E-4,-3.621507275E-3,-6.547127366E-3,7.533908714E-3
3.532274917E0,-1.237503807E-3,3.408264345E-3,-1.672596037E-2,1.711448018E-2
3.542225917E0,4.076943705E-3,7.710643339E-3,-1.492969573E-2,1.729078671E-2
3.552175917E0,9.494918911E-4,-1.692081427E-3,-6.847674251E-3,7.117254882E-3
3.562125917E0,7.269834084E-3,-2.870373039E-3,-1.672771454E-2,1.846363893E-2
3.572075917E0,3.577152947E-3,7.520293628E-3,-1.448296845E-2,1.670650216E-2
3.582026917E0,4.035853310E-3,-3.098606311E-3,-2.062079072E-2,2.123926748E-2
3.591976917E0,1.850232622E-4,1.612634668E-3,-2.406363130E-2,2.411831618E-2
3.601926917E0,6.006049784E-4,4.545456427E-4,-1.149036348E-2,1.151502457E-2
3.611877917E0,2.448978368E-3,-4.021637267E-3,-9.994060993E-3,1.104772902E-2
3.621827917E0,-7.318964400E-3,-1.889616817E-3,-9.995230436E-3,1.253166083E-2
3.631777917E0,4.900291055E-3,8.542708978E-3,-8.947994113E-3,1.330628903E-2
3.641727917E0,5.399396592E-3,3.534717236E-3,-8.198965788E-3,1.043411470E-2
3.651678917E0,8.813083316E-3,3.019833353E-3,-5.653672814E-3,1.089742388E-2
3.661628917E0,1.264750005E-2,5.814530631E-4,-7.150560021E-3,1.454055892E-2
3.671578917E0,6.368102068E-3,2.543353799E-3,-2.151950777E-2,2.258562789E-2
3.681528917E0,1.475033239E-3,5.575571372E-3,-2.211767793E-2,2.285726134E-2
3.691480792E0,-1.149001630E-2,9.687004513E-3,-1.463324189E-2,2.097594573E-2
3.701430792E0,5.290469360E-3,5.119353791E-3,-2.631247044E-4,7.366551696E-3
3.711380792E0,7.755961544E-3,9.423879809E-3,-5.352541208E-3,1.332719579E-2
3.721331792E0,4.943226976E-3,7.241440827E-3,-1.298725069E-2,1.566980021E-2
3.731281792E0,9.197487496E-4,7.429812534E-3,-2.062137544E-2,2.193830388E-2
3.741231792E0,-1.922409190E-4,-1.708707162E-3,-1.268845797E-2,1.280443682E-2
3.751181792E0,-8.430360211E-4,1.197308768E-4,-1.568223238E-2,1.570533214E-2
3.761132792E0,-4.568228591E-4,1.397105386E-3,-8.348069787E-3,8.476488645E-3
3.771082792E0,-1.866782983E-3,-1.641902723E-4,-9.695268273E-3,9.874718429E-3
3.781032792E0,6.652541701E-3,7.839099357E-3,-1.209028780E-2,1.587081753E-2
3.790983792E0,3.502646629E-3,1.231010428E-2,-1.583250582E-2,2.035866993E-2
3.800933792E0,1.495706800E-2,1.158639943E-2,-9.096513391E-3,2.099297718E-2
3.810883792E0,1.276216486E-2,1.128460316E-2,-7.449937463E-3,1.859345822E-2
3.820833792E0,8.933924250E-3,7.564924329E-3,-1.553254366E-2,1.945001273E-2
3.830784792E0,2.021144908E-3,8.605436354E-3,-2.809587121E-3,9.275362062E-3
3.840734792E0,4.291449725E-3,5.559907230E-3,-1.044312716E-2,1.258522999E-2
3.850684792E0,-2.039947361E-4,8.114715633E-3,-1.762760103E-2,1.940676536E-2
3.860635792E0,8.520845873E-3,1.069012177E-2,-8.346900344E-3,1.601731136E-2
3.870585792E0,1.077409327E-2,9.623237886E-4,-1.882452607E-2,2.171105558E-2
3.880535792E0,3.676514500E-3,1.212751355E-3,-1.553078949E-2,1.600602846E-2
3.890485792E0,5.544772991E-3,2.146645342E-3,-1.687740326E-2,1.789411452E-2
3.900436792E0,5.676563750E-3,3.493460105E-3,-1.957180023E-2,2.067566211E-2
3.910386792E0,-3.823964833E-3,5.225990103E-3,-1.104012787E-2,1.279914462E-2
3.920336792E0,1.784743806E-3,5.554012049E-3,-1.358600557E-2,1.478553035E-2
3.930287792E0,1.795003843E-3,3.127872082E-4,-1.149036348E-2,1.163393001E-2
3.940237792E0,1.433408372E-3,-3.394422890E-4,-7.597872019E-3,7.739350092E-3
3.950187792E0,5.556175062E-3,1.102624987E-2,-1.208911836E-2,1.727993201E-2
3.960137792E0,8.910265868E-3,1.199724399E-2,-2.808417678E-3,1.520571968E-2
3.970088792E0,8.487827377E-3,8.924397400E-3,-6.700324416E-3,1.402078564E-2
3.980038792E0,7.898067157E-3,3.757313427E-3,-2.017230928E-2,2.198678991E-2
3.989988792E0,1.130385100E-2,1.145527562E-2,-1.583192110E-2,2.257543162E-2
3.999939792E0,-1.916973107E-4,1.611734288E-2,-1.463441133E-2,2.177088617E-2
4.009889792E0,6.596604860E-3,1.606491209E-2,-1.807725191E-2,2.506758131E-2
4.019839792E0,-2.264749962E-3,3.387958976E-4,-1.388479829E-2,1.407236649E-2
4.029789792E0,6.210245518E-4,4.441245797E-3,-1.882452607E-2,1.935130790E-2
4.039740792E0,9.105348168E-4,6.088664546E-4,-1.777728975E-2,1.781100286E-2
4.049690792E0,3.568510031E-3,6.530965297E-3,-1.104129732E-2,1.331533019E-2
4.059640792E0,-5.146157336E-3,-1.650077405E-3,-1.897538424E-2,1.972994926E-2
4.069591792E0,3.688967242E-3,-1.370372646E-4,-1.568223238E-2,1.611085569E-2
4.079541792E0,2.426187932E-3,6.018326653E-3,-4.905229211E-3,8.134366428E-3
4.089491792E0,9.679859946E-3,6.146364687E-3,-1.448530734E-2,1.847435022E-2
4.099441792E0,7.662136573E-4,2.763172563E-3,-8.646862507E-3,9.109908737E-3
4.109392792E0,2.581701027E-3,2.445970250E-3,-1.388596773E-2,1.433415678E-2
4.119342792E0,5.929501508E-3,8.959830157E-3,-1.717911959E-2,2.026227268E-2
4.129292792E0,-3.193452260E-3,7.997017577E-3,-1.433503389E-2,1.672254838E-2
4.139243792E0,1.345654456E-2,5.395623310E-3,-1.074250460E-2,1.804418874E-2
4.149193792E0,5.451199268E-3,1.502331741E-2,-9.396475554E-3,1.853940108E-2
4.159143792E0,-3.049656437E-3,1.174978342E-2,-1.613246799E-2,2.018946107E-2
4.169093792E0,9.791482380E-4,7.543049804E-3,-1.628274143E-2,1.797175562E-2
4.179044792E0,1.383291339E-3,5.899034317E-3,-1.298900485E-2,1.433270204E-2
4.188994792E0,-2.853761008E-3,8.196334541E-3,-1.119274020E-2,1.416337831E-2
4.198944792E0,3.978696777E-3,1.490129105E-2,-9.696437716E-3,1.821810658E-2
4.208895792E0,5.246003112E-3,1.342517973E-2,-1.897772312E-2,2.383086180E-2
4.218845792E0,6.822394179E-3,8.812325005E-4,-7.751653790E-3,1.036386846E-2
4.228795792E0,4.014520110E-3,2.440723744E-3,-4.758464098E-3,6.687038558E-3
4.238745792E0,-8.801155910E-4,1.393885077E-2,-4.757879376E-3,1.475478161E-2
4.248696792E0,3.165837871E-3,7.727148018E-3,-7.901342511E-3,1.149619761E-2
4.258646792E0,1.002208195E-3,7.931706919E-3,-8.050446510E-3,1.134575185E-2
4.268596792E0,6.856143577E-3,3.604059275E-3,-2.182122409E-2,2.315516722E-2
4.278546792E0,1.412885559E-2,1.400049322E-2,-1.478585422E-2,2.478426629E-2
4.288497792E0,2.301235674E-3,5.283902662E-3,4.525160193E-3,7.327508973E-3
4.298447792E0,4.312230181E-4,1.055656771E-2,-6.851767302E-3,1.259260855E-2
4.308397792E0,3.444087678E-3,8.750682562E-3,-1.912039518E-3,9.596461866E-3
4.318348792E0,1.227717030E-2,4.790493592E-3,-6.103908420E-3,1.452361654E-2
4.328298792E0,8.319436703E-3,8.423396086E-3,-2.376659274E-2,2.655216675E-2
4.338248792E0,5.185950380E-3,8.227786166E-3,-1.208970308E-2,1.551616793E-2
4.348199792E0,7.105289781E-3,4.353501017E-3,-2.047285616E-2,2.210375429E-2
4.358149792E0,-1.445070826E-3,5.529124837E-3,-1.987410128E-2,2.067944276E-2
4.368099792E0,-5.172341899E-3,5.760288569E-3,-1.223939180E-2,1.448229115E-2
4.378049792E0,4.468186386E-3,2.480046269E-3,-1.568281710E-2,1.649442546E-2
4.388000792E0,3.843982411E-3,3.585309356E-3,-7.450522184E-3,9.118164551E-3
4.397950792E0,-2.180129788E-3,5.176249940E-3,-1.089277804E-2,1.225557599E-2
4.407900792E0,3.356484510E-3,5.003206618E-4,-1.628157198E-2,1.663147303E-2
4.417851792E0,1.142152165E-2,5.635203836E-3,4.375471473E-3,1.346667850E-2
4.427801792E0,3.073867564E-3,1.380903802E-2,-7.748730183E-3,1.613012747E-2
4.437751792E0,-1.659110896E-3,9.786521383E-3,-1.747849703E-2,2.010041065E-2
4.447701792E0,2.435808429E-3,7.967125971E-3,-1.044312716E-2,1.335916029E-2
4.457652792E0,1.947625307E-3,1.519144314E-2,-1.717911959E-2,2.301511109E-2
4.467602792E0,5.452921456E-3,1.936358225E-2,-8.347485065E-3,2.177988010E-2
4.477552792E0,1.987952823E-3,-5.954338470E-4,-1.223939180E-2,1.241407305E-2
4.487503792E0,-1.685825363E-3,3.491744769E-3,-7.898418903E-3,8.798824345E-3
4.497453792E0,1.151479844E-2,5.753495749E-3,-5.054333210E-3,1.382893997E-2
4.507403792E0,-3.942302428E-5,8.303146726E-3,-8.048107624E-3,1.156355638E-2
4.517353792E0,7.017631796E-3,9.920285577E-3,-1.628098726E-2,2.031575173E-2
4.527304792E0,5.876789773E-3,1.137165358E-2,-1.119157076E-2,1.700301206E-2
4.537254792E0,1.101154047E-3,1.283377726E-2,-1.328721285E-2,1.850590188E-2
4.547204792E0,4.127905844E-3,1.095269830E-2,-1.807783663E-2,2.153623421E-2
4.557155792E0,7.901890688E-3,7.167121803E-3,-1.792931736E-2,2.086307581E-2
4.567105792E0,2.829408268E-3,2.348515894E-3,-1.179207981E-2,1.235209392E-2
4.577055792E0,7.225801810E-3,7.923365501E-3,-2.331811130E-2,2.566566281E-2
4.587005792E0,8.472926114E-3,1.754621509E-4,-9.546164274E-3,1.276520725E-2
4.596956792E0,5.217945613E-3,1.110235504E-3,-1.283990085E-2,1.390405096E-2
4.606906792E0,-5.834826864E-3,5.942890719E-3,-2.436593235E-2,2.574998667E-2
4.616856792E0,-3.469422567E-3,5.505130696E-3,-1.613246799E-2,1.739539825E-2
4.626807792E0,2.662301240E-3,6.664293234E-3,-1.283873141E-2,1.470828598E-2
4.636757792E0,3.549438058E-3,1.492566434E-2,-9.545579553E-3,1.806909117E-2
4.646707792E0,2.631155681E-3,1.342835002E-2,-1.658153415E-2,2.149862412E-2
4.656657792E0,2.628410230E-3,5.308403866E-3,-5.654257536E-3,8.188914472E-3
4.666608792E0,8.046051962E-3,2.225468093E-2,-1.508347750E-2,2.806280579E-2
4.676558792E0,1.967039891E-5,9.314333594E-3,-1.029343843E-2,1.388207737E-2
4.686508750E0,7.754970258E-3,1.092096116E-2,-1.343748629E-2,1.897295428E-2
4.696459750E0,6.359897694E-4,8.059224186E-3,-8.048692346E-3,1.140776165E-2
4.706409750E0,3.353556334E-3,1.140091707E-2,-2.331752658E-2,2.617124941E-2
4.716359750E0,6.118759434E-3,1.538357442E-2,-2.511496067E-2,3.008080498E-2
4.726310750E0,7.584766033E-3,4.110265982E-3,-1.119449437E-2,1.413292844E-2
4.736260750E0,6.207582294E-3,5.008443987E-3,-8.051031232E-3,1.133303547E-2
4.746210750E0,5.438979501E-3,6.001479363E-3,-9.996984601E-3,1.286623308E-2
4.756160750E0,4.372557001E-3,-7.067799079E-4,-4.158539772E-3,6.075544881E-3
4.766111750E0,-1.706509888E-3,-4.507371867E-3,-2.062897682E-3,5.242530305E-3
4.776061750E0,-5.739087844E-4,4.397894174E-3,-1.972558200E-2,2.021804713E-2
4.786011750E0,-3.774953289E-3,1.361762621E-2,-1.134301364E-2,1.812054013E-2
4.795961750E0,4.264803780E-3,1.902571140E-2,-7.899588346E-3,2.103734160E-2
4.805912750E0,-1.071433746E-3,1.879723145E-2,-7.001456022E-3,2.008741564E-2
4.815862750E0,3.624149943E-3,5.842094771E-3,-1.119390965E-2,1.313651960E-2
4.825812750E0,-7.572578243E-3,9.716391340E-3,-1.718087375E-2,2.114082838E-2
4.835763750E0,-4.671244654E-3,1.061368998E-2,-1.733056247E-2,2.085232211E-2
4.845713750E0,4.714683071E-3,-2.165829234E-3,-5.354880095E-3,7.456124567E-3
4.855663750E0,1.287830975E-3,2.587388358E-3,-1.658036470E-2,1.683037673E-2
4.865614750E0,1.268552065E-2,5.982055643E-3,-1.104188204E-2,1.785022641E-2
4.875564750E0,6.193603794E-3,4.073058504E-3,-1.373627901E-2,1.560884027E-2
4.885514750E0,7.021733983E-3,3.265733896E-3,-2.092192233E-2,2.230911473E-2
4.895464750E0,-1.752159283E-3,-9.283870971E-4,-1.268904269E-2,1.284304361E-2
4.905415750E0,1.771212984E-3,8.028957993E-4,-1.119274020E-2,1.136042562E-2
4.915365750E0,3.441387909E-3,2.711936336E-3,-1.119215548E-2,1.201923848E-2
4.925315750E0,5.987000652E-5,-5.373392471E-3,-1.358717501E-2,1.461123731E-2
4.935266750E0,1.834764909E-3,5.755156267E-3,-1.987410128E-2,2.077180993E-2
4.945216750E0,8.138227835E-4,1.327262450E-2,-6.253597140E-3,1.469463664E-2
4.955166750E0,1.626919233E-3,9.251252187E-3,-9.397060275E-3,1.328673305E-2
4.965116750E0,6.167122303E-3,9.878699540E-3,-2.286846042E-2,2.566298081E-2
4.975067750E0,-5.256843301E-3,1.317059516E-2,-9.545579553E-3,1.709435776E-2
4.985017750E0,2.182450402E-3,2.813063473E-3,-1.059340060E-2,1.117571260E-2
4.994967750E0,1.714371652E-3,6.236713305E-3,-1.119215548E-2,1.292671680E-2
5.004918750E0,-2.683817167E-3,9.418594474E-3,3.449857235E-5,9.793568635E-3
5.014868750E0,5.167632150E-3,1.085213532E-2,-6.401531696E-3,1.361810821E-2
5.024818750E0,2.966370159E-3,8.975875739E-3,-4.305889606E-3,1.038779969E-2
5.034768750E0,8.990148883E-3,1.223248250E-2,-1.059223115E-2,1.851085535E-2
5.044719750E0,5.659236806E-3,5.820270495E-3,-1.313752413E-2,1.544334970E-2
5.054669750E0,4.740013392E-3,9.911601548E-4,-8.347485065E-3,9.650421355E-3
5.064619750E0,2.795471577E-3,8.717259786E-3,-1.568164766E-2,1.815817592E-2
5.074570750E0,7.055136203E-3,6.953504286E-3,-1.163946748E-2,1.528408885E-2
5.084520750E0,5.451244949E-3,-3.359892340E-3,-5.652503371E-3,8.541413372E-3
5.094470750E0,1.563540897E-3,-4.700327700E-3,-1.657977998E-2,1.730395460E-2
5.104420750E0,-7.414968372E-3,2.807702764E-3,-7.897834182E-3,1.119110073E-2
5.114371750E0,2.068352038E-3,7.456399093E-3,-1.059281588E-2,1.311806829E-2
5.124321750E0,-7.855825592E-3,-2.710897084E-3,-6.102154255E-3,1.031015253E-2
5.134271750E0,-1.900345087E-6,9.734577094E-3,-1.298783541E-2,1.623101548E-2
5.144222750E0,6.360112396E-3,4.749049167E-3,-1.897538424E-2,2.056865831E-2
5.154172750E0,-1.105735889E-3,1.304797265E-2,-1.909700632E-3,1.323326107E-2
5.164122750E0,2.036142102E-3,9.404748450E-3,-1.418476045E-2,1.714067085E-2
5.174072750E0,5.748676364E-3,1.191519567E-2,-2.226736665E-2,2.590086457E-2
5.184023750E0,2.544347369E-3,1.706044167E-2,-8.346900344E-3,1.916254468E-2
5.193973750E0,8.530196850E-3,9.590616818E-3,-8.945655227E-3,1.564509305E-2
5.203923750E0,-7.530907695E-3,6.107992334E-3,-3.557446003E-3,1.032848310E-2
5.213874750E0,1.618819926E-3,1.427246640E-2,-1.089160860E-2,1.802639767E-2
5.223824750E0,4.615837717E-3,1.227183243E-2,-1.343631685E-2,1.877334385E-2
5.233774750E0,6.717829518E-3,9.833337937E-3,-8.196626902E-3,1.445712492E-2
5.243724750E0,-9.020791948E-4,3.789840848E-3,-1.148977876E-2,1.213225686E-2
5.253675750E0,3.053863691E-3,6.914835004E-4,-5.951880813E-3,6.725259704E-3
5.263625750E0,4.608236337E-3,-2.922575427E-3,-8.048107624E-3,9.723647751E-3
5.273575750E0,3.682603827E-3,1.096574489E-2,-1.523375094E-2,1.912789324E-2
5.283526750E0,-4.472421049E-3,5.176791265E-3,-1.852573335E-2,1.974853195E-2
5.293476750E0,1.140207052E-3,-4.678834614E-3,-1.672888398E-2,1.740824876E-2
5.303426750E0,9.561097515E-3,4.508381425E-3,-1.298725069E-2,1.674541039E-2
5.313376750E0,8.228813997E-4,5.549517001E-3,-1.463382661E-2,1.567236913E-2
5.323327750E0,6.611008197E-3,-1.316386401E-3,-1.208911836E-2,1.384142642E-2
5.333277750E0,4.504032559E-3,1.292473344E-2,-1.223880708E-2,1.836092162E-2
5.343227750E0,3.038386842E-3,1.304707501E-2,-1.283814669E-2,1.855467519E-2
5.353178750E0,-3.512911233E-3,6.171062321E-3,-1.568281710E-2,1.721549615E-2
5.363128750E0,1.509878989E-3,7.192564043E-3,-9.843787551E-3,1.228465976E-2
5.373078750E0,-1.415752522E-3,5.523380404E-3,-1.119157076E-2,1.256038783E-2
5.383029750E0,6.291855290E-3,6.554975426E-3,-1.029402316E-2,1.373033352E-2
5.392979750E0,4.462741166E-3,1.105301459E-2,-1.238849580E-2,1.719185908E-2
5.402929750E0,-4.835747844E-3,4.447305431E-3,-1.089160860E-2,1.271967455E-2
5.412879750E0,-1.495439108E-3,6.738927460E-3,-1.610907912E-3,7.088335893E-3
5.422830750E0,3.775346149E-3,2.079738120E-3,-6.999117136E-3,8.219865563E-3
5.432780750E0,5.650146212E-4,2.035612199E-3,2.430687547E-3,3.220434830E-3
5.442730750E0,-2.917851973E-4,-4.809357715E-4,-7.299079299E-3,7.320723764E-3
5.452681750E0,2.136883233E-3,-3.404086784E-3,-8.346315622E-3,9.263641900E-3
5.462631750E0,7.234526952E-3,1.727970997E-3,-8.046938181E-3,1.095798695E-2
5.472581750E0,7.613508753E-3,2.678778511E-3,-1.762701631E-2,1.938693049E-2
5.482531750E0,1.122214987E-2,1.121687139E-2,-1.597985566E-2,2.251911717E-2
5.492482750E0,9.375923504E-3,4.119347439E-3,-1.762584686E-2,2.038498081E-2
5.502432750E0,3.166134800E-3,5.848407936E-3,-2.196623504E-2,2.295089904E-2
5.512382750E0,1.464832588E-3,9.442348788E-3,-6.848258972E-3,1.175594897E-2
5.522333750E0,-5.119191622E-4,1.028204550E-2,-6.997362971E-3,1.244771503E-2
5.532283750E0,-4.249692382E-4,9.059228254E-3,-1.717619598E-2,1.942348897E-2
5.542233750E0,2.110525081E-3,6.213413521E-3,-4.003588557E-3,7.686972423E-3
5.552183750E0,6.066394877E-4,1.082169782E-2,-2.357012630E-3,1.109200901E-2
5.562134750E0,4.987492226E-3,1.048360542E-2,-1.088926971E-2,1.591720001E-2
5.572084750E0,2.382036885E-3,6.390054252E-3,-6.248334646E-3,9.249247478E-3
5.582034750E0,6.544299689E-3,4.605922576E-3,-1.193592131E-2,1.437040705E-2
5.591985750E0,5.539592723E-3,9.260150918E-3,-5.050824881E-3,1.191420642E-2
5.601935750E0,8.221029891E-3,-2.396207247E-3,-3.105456233E-3,9.108841861E-3
5.611885750E0,4.357185219E-3,1.949973330E-3,-1.328487396E-2,1.411649160E-2
5.621835750E0,4.503269680E-3,3.848998225E-4,1.871109009E-4,4.523560121E-3
5.631786750E0,1.200347949E-2,1.032065768E-2,-1.163829803E-2,1.964814180E-2
5.641736750E0,-1.443380616E-3,8.386277687E-4,-1.523082733E-2,1.532203463E-2
5.651686750E0,4.543469287E-5,2.745386520E-3,-2.207908630E-3,3.523360892E-3
5.661637750E0,-3.146007587E-3,3.535671977E-3,-1.927242279E-2,1.984501500E-2
5.671587750E0,2.955370084E-3,1.070415052E-3,-1.957180023E-2,1.982259733E-2
5.681537750E0,7.461535963E-3,1.587067032E-2,-1.193709075E-2,2.121430723E-2
5.691487250E0,5.729339439E-3,8.808069786E-3,-7.295570970E-3,1.279190289E-2
5.701438250E0,8.045279947E-3,6.110797171E-3,-1.043844938E-2,1.452685778E-2
5.711388250E0,-2.880073478E-4,4.437143609E-3,-7.742882967E-3,8.928797695E-3
5.721338250E0,6.067404435E-3,6.244730386E-3,-1.372984707E-2,1.625788285E-2
5.731289250E0,3.510732232E-3,-3.936843504E-4,-1.881867886E-2,1.914739935E-2
5.741239250E0,-7.595213363E-4,1.031148258E-2,-1.492735684E-2,1.815845610E-2
5.751189250E0,4.539540689E-4,5.835475540E-3,-1.896953702E-2,1.985200705E-2
5.761139250E0,6.380011202E-3,1.158982096E-3,-1.208444059E-2,1.371428040E-2
5.771090250E0,6.925857919E-3,-1.183314279E-3,-1.103661954E-2,1.308337539E-2
5.781040250E0,5.515769888E-3,3.739933949E-5,-1.762292325E-2,1.846598333E-2
5.790990250E0,1.377005582E-3,1.056019481E-2,-7.086825371E-4,1.067314807E-2
5.800941250E0,-7.232137816E-3,3.741379764E-3,-1.358249724E-2,1.583622339E-2
5.810891250E0,7.712089154E-3,-2.951907436E-4,-9.242693782E-3,1.204121443E-2
5.820841250E0,4.746299149E-3,7.543465504E-3,-2.806663513E-3,9.343906437E-3
5.830791250E0,2.478397172E-3,7.818686636E-3,-1.268611908E-2,1.510668496E-2
5.840742250E0,2.313665575E-3,6.125520277E-3,-1.328487396E-2,1.481090555E-2
5.850692250E0,7.485792772E-3,6.456216867E-3,-1.927183807E-2,2.165926066E-2
5.860642250E0,2.080791076E-3,1.093382960E-2,-1.478234589E-2,1.850394745E-2
5.870593250E0,2.727963645E-3,1.263324518E-2,-1.762701631E-2,2.185754728E-2
5.880543250E0,-5.643696003E-3,7.450656944E-3,-1.433503389E-2,1.711305905E-2
5.890493250E0,1.986312862E-3,2.658975637E-3,-1.029402316E-2,1.081584500E-2
5.900443250E0,5.368054602E-3,2.029442929E-3,-9.546164274E-3,1.113839760E-2
5.910394250E0,-7.181568537E-4,2.092389576E-3,-1.703001559E-2,1.717309740E-2
5.920344250E0,2.637308962E-3,2.405067149E-3,-1.179032564E-2,1.231874690E-2
5.930294250E0,9.083156157E-3,4.907054182E-3,-2.062196016E-2,2.306183313E-2
5.940245250E0,1.521313037E-3,3.854726669E-3,-9.994060993E-3,1.081917586E-2
5.950195250E0,-4.869689103E-3,1.472140466E-2,-7.748730183E-3,1.733425644E-2
5.960145250E0,3.626429443E-3,9.408240791E-3,-2.646040499E-2,2.831640898E-2
5.970095250E0,-4.218629049E-4,3.252330981E-3,-1.343631685E-2,1.383077133E-2
5.980046250E0,2.913411744E-3,5.960868623E-3,-9.694683552E-3,1.174763005E-2
5.989996250E0,6.063850424E-3,8.959590329E-3,-1.253759980E-2,1.656007094E-2
5.999946250E0,1.274967100E-3,8.439875641E-3,-1.867483735E-2,2.053306095E-2
6.009897250E0,7.951359046E-3,3.025486423E-3,-4.304720163E-3,9.534584126E-3
6.019847250E0,8.983337791E-3,6.818127539E-3,-1.837487519E-2,2.155976018E-2
6.029797250E0,9.067341266E-3,-3.519034821E-3,-1.133950531E-2,1.493936627E-2
6.039747250E0,4.951170967E-3,7.097208747E-3,-1.029285371E-2,1.344720430E-2
6.049698250E0,3.442580192E-3,1.337272609E-2,-1.253818452E-2,1.865173538E-2
6.059648250E0,4.506421695E-3,5.939793522E-3,-8.624643087E-4,7.505519852E-3
6.069598250E0,6.168698310E-3,5.508387778E-3,-2.808417678E-3,8.733978738E-3
6.079549250E0,8.161479654E-4,2.846479397E-3,-9.095343947E-3,9.565240404E-3
6.089499250E0,1.984343994E-3,6.742392392E-3,-1.912507296E-2,2.037562004E-2
6.099449250E0,-3.571369685E-4,2.543189346E-3,-1.538227022E-2,1.559517861E-2
6.109399250E0,4.547443567E-4,-4.344220846E-3,-1.223822236E-2,1.299435007E-2
6.119350250E0,7.733034063E-4,4.385578476E-3,-1.807608247E-2,1.861655323E-2
6.129300250E0,9.686428928E-3,8.098192681E-3,-1.178857148E-2,1.727362288E-2
6.139250250E0,1.449652211E-2,7.278888132E-3,-1.418359101E-2,2.154775208E-2
6.149201250E0,6.794811767E-3,1.179436616E-2,-6.550635695E-3,1.510587197E-2
6.159151250E0,-7.173035257E-3,5.615122304E-3,-1.179032564E-2,1.489945677E-2
6.169101250E0,5.600782922E-3,-2.480217575E-3,-1.687974215E-2,1.795677987E-2
6.179052250E0,6.729756924E-3,5.673857129E-3,-3.107795119E-3,9.334916897E-3
6.189002250E0,7.335784282E-3,9.602178773E-4,-2.637094259E-4,7.403059642E-3
6.198952250E0,8.532097195E-3,5.230713557E-3,-1.568164766E-2,1.860298686E-2
6.208902250E0,7.831070856E-3,1.021532329E-2,-7.299664021E-3,1.479741854E-2
6.218853250E0,1.001527542E-3,1.068975403E-2,-9.844372272E-3,1.456659068E-2
6.228803250E0,-2.445552265E-4,5.535070268E-3,-3.408342004E-3,6.504890878E-3
6.238753250E0,6.637233873E-3,2.080046469E-3,-1.897713840E-2,2.021166120E-2
6.248703250E0,6.289717401E-3,5.659675347E-3,-1.074484348E-2,1.367640784E-2
6.258654250E0,1.055500084E-2,-2.096135449E-4,-1.074484348E-2,1.506332108E-2
6.268604250E0,3.505058605E-3,4.905635775E-3,-1.104539037E-2,1.258377314E-2
6.278554250E0,2.813698445E-4,3.825438058E-3,-7.452276349E-3,8.381501542E-3
6.288505250E0,8.693338735E-3,8.895675237E-3,-7.601380348E-3,1.457697361E-2
6.298455250E0,1.501702024E-3,7.880233149E-3,-2.107278049E-2,2.254806557E-2
6.308405250E0,9.660445363E-3,9.556750932E-3,-1.882686496E-2,2.321866786E-2
6.318356250E0,6.280320743E-3,2.301951501E-2,-8.797720671E-3,2.543109099E-2
6.328306250E0,2.220777073E-3,6.202105097E-3,-4.606436491E-3,8.038483414E-3
6.338256250E0,5.079051401E-3,1.777046495E-3,-5.953634977E-3,8.024987652E-3
6.348206250E0,1.574317133E-3,6.060931385E-3,-1.613188326E-2,1.730465317E-2
6.358157250E0,8.063721517E-4,5.732358978E-3,-1.478410006E-2,1.587702081E-2
6.368107250E0,8.552009705E-3,6.797237447E-3,-8.347485065E-3,1.374844769E-2
6.378057250E0,4.125598934E-3,1.932507971E-2,-1.687974215E-2,2.598855454E-2
6.388008250E0,5.086291898E-3,8.278730032E-3,-1.613012910E-2,1.883052843E-2
6.397958250E0,1.002772360E-2,8.789468331E-3,-1.238791108E-2,1.820083336E-2
6.407908250E0,6.755311084E-3,-7.074205892E-3,-9.095343947E-3,1.335679222E-2
6.417858250E0,5.600732672E-3,7.987664316E-3,-1.478176117E-2,1.771077217E-2
6.427809250E0,7.948558778E-5,2.573916921E-5,-1.208794892E-2,1.208823765E-2
6.437759250E0,1.163351519E-2,5.559962047E-3,-1.009814143E-3,1.293335140E-2
6.447709250E0,8.504309217E-3,1.549046198E-3,-8.643938899E-3,1.222458584E-2
6.457660250E0,1.238153396E-2,1.710875657E-2,-1.687681854E-2,2.703403297E-2
6.467610250E0,6.144130868E-3,-5.863592424E-4,-1.328487396E-2,1.464861896E-2
6.477560250E0,2.514768681E-3,-1.766046421E-3,-1.612779021E-2,1.641793527E-2
6.487510250E0,-3.562068958E-3,1.531992428E-2,-3.255144954E-3,1.606189229E-2
6.497461250E0,-3.415239891E-3,6.703636316E-3,-2.506116629E-3,7.929894320E-3
6.507411250E0,6.556286481E-3,8.457289380E-3,-2.506701350E-3,1.099064092E-2
6.517361250E0,4.349880768E-3,7.960911021E-3,-5.948957205E-3,1.084839430E-2
6.527312250E0,4.726340957E-3,4.463890053E-3,-8.645108342E-3,1.081676992E-2
6.537262250E0,1.761976210E-3,1.151204614E-2,-1.044078827E-2,1.564103022E-2
6.547212250E0,2.497980776E-3,9.104820548E-3,-1.598044038E-2,1.856103822E-2
6.557162250E0,4.921564870E-3,6.669628818E-3,-8.197211623E-3,1.165761673E-2
6.567113250E0,7.454921301E-3,-1.560087386E-4,-9.842618108E-3,1.234817078E-2
6.577063250E0,1.302216039E-3,-8.275797288E-4,-4.304720163E-3,4.572884265E-3
6.587013250E0,7.007613871E-4,1.163167424E-2,-2.122013032E-2,2.420910661E-2
6.596964250E0,4.280920168E-3,-4.786174418E-4,-8.796551228E-3,9.794624324E-3
6.606914250E0,-3.138173232E-3,2.932926826E-3,-1.702943087E-2,1.756279325E-2
6.616864250E0,1.004545254E-2,1.751245656E-3,-5.054333210E-3,1.138087265E-2
6.626814250E0,8.502920503E-3,9.365469322E-3,-1.702943087E-2,2.121351429E-2
6.636765250E0,3.422759045E-3,2.709960616E-3,-2.271760225E-2,2.313327945E-2
6.646715250E0,1.251226034E-2,9.026917820E-3,-1.358600557E-2,2.055775891E-2
6.656665250E0,8.410041137E-3,-6.132587185E-4,-3.094931245E-2,3.207748150E-2
6.666616250E0,2.710531633E-3,8.610705701E-3,1.865261793E-4,9.029176397E-3
6.676566250E0,9.018882466E-3,2.737702914E-3,-4.801382661E-2,4.893018295E-2
6.686516250E0,1.471180015E-2,2.312576303E-2,4.284664214E-2,5.086327478E-2
6.696466250E0,5.945056016E-3,1.203635409E-2,2.054185331E-2,2.453946308E-2
6.706417250E0,-5.682228240E-3,1.194505073E-2,-1.369312656E-1,1.375686863E-1
6.716367250E0,-3.659196692E-3,-2.063194611E-3,5.018022001E-2,5.035574419E-2
6.726317250E0,-7.063523303E-3,-6.481416996E-3,-6.657698214E-2,6.726363563E-2
6.736268250E0,3.598442294E-2,-6.600583708E-3,-6.611271322E-2,7.556015649E-2
6.746218250E0,2.504533312E-1,1.264124261E-1,7.565069139E-2,2.905684080E-1
6.756168250E0,1.248766458E0,5.377035926E-1,-6.355514109E-2,1.361095910E0
6.766118250E0,4.149555525E-1,3.224099893E-4,5.500592709E-2,4.185855546E-1
6.776069250E0,-1.752512857E-1,-2.382824249E-1,-4.333371520E-2,2.989470489E-1
6.786019250E0,-5.148729929E-1,-1.817904828E-1,1.653475642E-2,5.462740856E-1
6.795969250E0,-1.675583672E0,-5.321440234E-1,-9.209949374E-3,1.758079272E0
6.805920250E0,-5.046637543E-1,3.840489613E-1,-7.566764832E-2,6.386741756E-1
6.815870250E0,-6.229758316E-2,7.926742268E-2,1.301654524E-1,1.646431236E-1
6.825820250E0,-9.365783519E-1,-1.408448527E-1,1.788768518E-1,9.638533134E-1
6.835770250E0,-1.320247061E0,-6.074614235E-1,9.862878710E-1,1.756367117E0
6.845721250E0,-4.790393184E-1,-7.190473846E-1,2.373221111E0,2.525606116E0
6.855671250E0,4.129681936E-1,-1.673373169E-1,1.501869619E0,1.566574882E0
6.865621250E0,9.659214342E-1,1.315645266E-1,-1.150222163E0,1.507754777E0
6.875572250E0,1.563309969E0,4.452261129E-1,-3.055111706E-1,1.653935133E0
6.885522250E0,1.093779648E0,2.225411978E0,1.180420108E0,2.746307343E0
6.895472250E0,6.346105208E-1,2.330979217E0,9.180496949E-1,2.584378043E0
6.905423250E0,4.414420142E-1,6.268573321E-1,-6.159293246E-1,9.834582348E-1
6.915373250E0,-1.137933947E-1,-6.396878044E-1,-4.665703869E-1,7.998983371E-1
6.925323250E0,-2.802716643E-1,-8.129505251E-1,2.090806442E-1,8.849607211E-1
6.935273250E0,-1.668037036E-1,-2.579196592E-1,4.381301147E-1,5.350738487E-1
6.945224250E0,-6.005551309E-1,1.005201713E0,2.648420316E0,2.895725664E0
6.955174250E0,-4.318590124E-1,2.716027578E0,5.382683605E0,6.044550504E0
6.965124250E0,-1.586451933E0,3.200852387E0,5.142609209E0,6.261686292E0
6.975074250E0,-1.640254211E0,7.198823670E-1,2.805517459E-1,1.813111629E0
6.985025250E0,-3.108978888E0,-6.892421238E0,-1.638138396E-1,7.562939589E0
6.994975250E0,2.044106193E-2,-4.731744077E0,7.396514377E0,8.780560618E0
7.004925250E0,5.713657938E-1,5.003075787E-1,9.598878093E0,9.628874658E0
7.014876250E0,-2.175644608E-1,9.450632465E-1,9.664235930E0,9.712771744E0
7.024826250E0,1.171653743E0,-2.054990492E0,3.574830360E0,4.286626940E0
7.034776250E0,-4.114213492E-1,-8.795151404E0,-2.498925723E0,9.152517988E0
7.044727250E0,4.959322388E0,-5.841623375E0,1.488443828E-1,7.664306678E0
7.054677250E0,4.759903390E0,-2.553879025E0,-1.658258665E0,5.650557508E0
7.064627250E0,4.826653742E0,8.765176530E-1,-1.342533578E0,5.085987215E0
7.074577250E0,5.577261400E0,4.849622190E-2,6.270168734E0,8.391853941E0
7.084528250E0,3.783355519E0,-1.705970483E0,3.762765133E-1,4.167217091E0
7.094478250E0,-1.650393429E0,2.356605371E0,-6.562290366E0,7.165266372E0
7.104428250E0,-4.344468951E0,2.269060273E0,2.144337702E-1,4.906019449E0
7.114379250E0,-2.624682375E0,-1.727936718E0,-7.471770966E-1,3.230014935E0
7.124329250E0,3.438226831E0,-3.103344219E0,-5.766107755E0,7.395954821E0
7.134279250E0,7.792724048E0,-2.723344783E0,-3.784349545E0,9.080994240E0
7.144229250E0,6.740372581E0,-1.904379666E0,-2.552451720E0,7.454816847E0
7.154180250E0,3.926684223E0,1.133148586E0,-9.508894122E-1,4.196077380E0
7.164130250E0,1.010284844E0,1.208281799E0,2.841419363E0,3.248735811E0
7.174080250E0,-6.981967252E-1,9.592319271E-1,1.353493599E0,1.799874851E0
7.184031250E0,-2.220581301E0,2.203343417E0,-1.473358011E-1,3.131678681E0
7.193981250E0,-2.732654135E0,1.493626069E0,-4.441949052E0,5.424871320E0
7.203931250E0,-1.942218753E0,2.487545872E-1,-2.981901643E0,3.567328123E0
7.213881250E0,-5.699842429E-1,-3.439612913E-1,-3.066057694E-1,7.329382682E-1
7.223832250E0,-8.139733493E-2,-3.209133214E-1,-3.076804876E-3,3.310896445E-1
7.233782250E0,3.011976796E-1,3.740570565E-1,1.298552576E0,1.384513458E0
7.243732250E0,8.888147861E-1,5.364457834E-1,-3.753058755E-1,1.103911365E0
7.253683250E0,1.776484687E0,1.058900057E-1,-6.471300673E-1,1.893644069E0
7.263633250E0,2.547510822E0,-6.096796744E-1,-5.067840278E-2,2.619940647E0
7.273583250E0,2.188598785E0,-1.340039155E0,2.763639700E-1,2.581094075E0
7.283534250E0,1.163268471E0,-1.942635367E0,1.968354052E-1,2.272833007E0
7.293484250E0,-3.965347767E-2,-1.970725098E0,-1.316371965E-1,1.975514658E0
7.303434250E0,-8.847866392E-1,-1.655244717E0,-1.994327384E-1,1.887446923E0
7.313384250E0,-1.021205689E0,-1.797309546E0,-7.062541884E-1,2.184485670E0
7.323335250E0,-5.941297352E-1,-2.126299334E0,-3.257299653E0,3.934989203E0
7.333285250E0,-1.847860479E-1,-1.533330563E0,-6.312054094E0,6.498251718E0
7.343235250E0,-5.312508246E-1,-8.621330640E-1,-7.362092403E0,7.431413420E0
7.353186250E0,-5.041121426E-1,-1.950581440E-1,-6.239292512E0,6.262662994E0
7.363136250E0,-1.595874721E-1,2.788075215E-1,-3.610827574E0,3.625090007E0
7.373086250E0,6.259122759E-2,8.478661501E-1,6.932108045E-2,8.529947729E-1
7.383036250E0,-4.986739397E-2,1.889073409E0,2.321716497E0,2.993568539E0
7.392987250E0,-3.141963324E-1,2.301585995E0,3.756382313E0,4.416607919E0
7.402937250E0,5.561023682E-2,1.108763650E-1,2.026075426E0,2.029868887E0
7.412887250E0,-9.572853890E-1,-4.050262202E0,-1.528162794E0,4.433542686E0
7.422838250E0,-2.515833824E0,-5.604335178E0,-1.835595360E0,6.411505513E0
7.432788250E0,-2.741065647E0,-3.359192356E0,4.736045873E-1,4.361412096E0
7.442738250E0,-3.811625344E0,-1.929817685E0,3.331519530E0,5.417721518E0
7.452688250E0,-4.965543825E0,-2.060409107E0,6.402293589E0,8.360100141E0
7.462639250E0,-4.995926542E0,-2.162124347E0,5.565499141E0,7.785168232E0
7.472589250E0,-4.079999387E0,-2.274413399E0,2.963246101E-1,4.680508475E0
7.482539250E0,-2.505342457E0,-2.678153115E0,-4.351483855E0,5.690751855E0
7.492490250E0,-1.056660208E0,-2.418627372E0,-5.603340567E0,6.193844902E0
7.502440250E0,-7.645191342E-1,-1.794688824E0,-3.495029315E0,4.002577593E0
7.512390250E0,-2.306141415E0,-1.420049531E0,1.836695806E0,3.272350895E0
7.522341250E0,-4.802576078E0,-7.844288304E-1,7.895805783E0,9.274902400E0
7.532291250E0,-5.118334494E0,6.166689974E-1,1.134832993E1,1.246443825E1
7.542241250E0,-3.389277157E0,1.789342422E0,1.093425000E1,1.158649080E1
7.552191250E0,-1.850738187E0,1.532977976E0,8.636989483E0,8.965090108E0
7.562142250E0,-1.959285606E0,5.674781263E-2,5.136584823E0,5.497865408E0
7.572092250E0,-2.310845792E0,4.671554008E-1,1.918138164E0,3.039325001E0
7.582042250E0,-3.212396252E0,2.603269286E0,1.893713760E0,4.547818429E0
7.591993250E0,-4.192073261E0,1.498722648E0,2.524345908E0,5.117809108E0
7.601943250E0,-5.681241267E0,8.428179565E-1,1.637090575E0,5.972177994E0
7.611893250E0,-5.655075561E0,9.710810173E-1,2.278358808E0,6.173637243E0
7.621843250E0,-3.905431056E0,-1.715942616E0,5.011387750E0,6.581098539E0
7.631794250E0,-1.286674396E0,-1.189861023E0,8.398748775E0,8.579643421E0
7.641744250E0,2.525558913E0,-3.938666922E-1,6.532140368E0,7.014444852E0
7.651694250E0,2.881910162E0,-1.970102370E0,3.590599716E0,5.007905335E0
7.661645250E0,1.120420659E0,-5.922732443E-1,1.462707893E0,1.935366743E0
7.671595250E0,-5.633989625E-1,9.778345513E-1,-4.607518226E-1,1.218963101E0
7.681545250E0,-1.224298053E0,7.617261386E-1,-8.588156462E-2,1.444475018E0
7.691496000E0,-1.423863962E0,6.756638950E-1,1.093042241E0,1.917981132E0
7.701446000E0,-1.784236926E0,3.752029645E-1,2.037354121E0,2.734061171E0
7.711396000E0,-1.387737232E0,-8.365687448E-1,1.784877781E0,2.410695041E0
7.721346000E0,3.328469038E-2,-1.420404457E0,2.437952127E0,2.821748973E0
7.731297000E0,1.581699901E0,-9.375858271E-1,2.277251346E0,2.926895189E0
7.741247000E0,2.426945621E0,-1.828291603E0,1.612057475E0,3.439686691E0
7.751197000E0,1.311706180E0,-1.066316957E0,6.509155548E-1,1.811434795E0
7.761148000E0,3.644511044E-2,-1.100583980E0,-1.529058588E-1,1.111752466E0
7.771098000E0,-1.206790174E0,-1.707080576E0,6.685823321E-2,2.091634921E0
7.781048000E0,-2.002763455E0,-2.032041340E0,1.040244808E0,3.036834326E0
7.790999000E0,-2.894102191E0,-2.604210103E0,1.958798532E0,4.358282855E0
7.800949000E0,-2.903720276E0,-2.824527926E0,2.376891116E0,4.696718091E0
7.810899000E0,-1.795342543E0,-3.137859748E0,1.721880464E0,4.004284078E0
7.820849000E0,-8.966026926E-1,-2.600718146E0,6.188236964E-1,2.819676228E0
7.830800000E0,-1.995993841E-1,-2.196692501E0,-5.281737274E-1,2.268097296E0
7.840750000E0,-5.495990950E-1,-1.801389148E0,-1.890292846E0,2.668383232E0
7.850700000E0,-9.347136748E-1,-1.959649887E0,-2.328634338E0,3.183780020E0
7.860651000E0,-9.389295173E-1,-2.742360513E0,-1.985949786E0,3.513705505E0
7.870601000E0,-1.194499034E0,-3.055509317E0,-1.109503323E0,3.463230104E0
7.880551000E0,-2.000479825E0,-2.749409916E0,-2.344791949E-1,3.408248070E0
7.890501000E0,-2.094818802E0,-3.075057728E0,4.183577549E-1,3.744231437E0
7.900452000E0,-1.850599315E0,-3.228564096E0,4.957515013E-1,3.754212767E0
7.910402000E0,-1.422204230E0,-2.956121854E0,9.729825318E-2,3.281887907E0
7.920352000E0,-1.289592887E0,-2.450514286E0,-1.685951078E-1,2.774255646E0
7.930303000E0,-3.774056107E-1,-3.427613257E0,-8.661644268E-1,3.555447714E0
7.940253000E0,-2.185507947E-1,-3.656138817E0,-1.914692985E0,4.132936574E0
7.950203000E0,-7.660080546E-1,-2.589469857E0,-2.369834112E0,3.592803390E0
7.960154000E0,-1.215960070E0,-2.751306168E0,-2.647754318E0,4.007349180E0
7.970104000E0,-1.470801024E0,-3.011981474E0,-2.338990341E0,4.087317442E0
7.980054000E0,-1.801257586E0,-3.285533518E0,-1.543981267E0,4.052547044E0
7.990004000E0,-2.041028511E0,-3.236363697E0,-1.433248451E0,4.085835102E0
7.999955000E0,-2.049923295E0,-3.645184643E0,-1.507104193E0,4.445325595E0
8.009905000E0,-2.009220243E0,-3.702910695E0,-2.325484589E0,4.812108911E0
8.019855000E0,-1.528444045E0,-3.880352055E0,-2.735398234E0,4.987552182E0
8.029806000E0,-1.045209678E0,-4.138071594E0,-2.818785376E0,5.114846115E0
8.039756000E0,-1.187757195E0,-3.581047119E0,-3.218789890E0,4.959362256E0
8.049706000E0,-1.214472538E0,-3.551070784E0,-3.175229303E0,4.916007362E0
8.059657000E0,-1.473731648E0,-3.789134322E0,-3.348565918E0,5.267097644E0
8.069607000E0,-2.066730532E0,-3.879396036E0,-3.370018183E0,5.538782470E0
8.079557000E0,-2.591516967E0,-3.830722058E0,-3.273039773E0,5.665966911E0
8.089507000E0,-2.722554824E0,-3.746491747E0,-3.328570195E0,5.703322254E0
8.099458000E0,-2.732409722E0,-3.559161576E0,-3.530689144E0,5.709593667E0
8.109408000E0,-2.443826825E0,-3.459095251E0,-3.675522337E0,5.607770854E0
8.119358000E0,-1.927945699E0,-3.330024690E0,-3.577079784E0,5.253716668E0
8.129309000E0,-1.630353997E0,-3.260368856E0,-3.277558501E0,4.902086185E0
8.139259000E0,-1.372664865E0,-3.190459546E0,-2.980188993E0,4.576545354E0
8.149209000E0,-1.113375934E0,-3.138340389E0,-2.740260778E0,4.312518464E0
8.159159000E0,-1.112331036E0,-3.181287311E0,-2.764467666E0,4.358916238E0
8.169110000E0,-1.242999349E0,-3.128052213E0,-2.998891897E0,4.508116086E0
8.179060000E0,-1.099450790E0,-2.921297591E0,-3.416859643E0,4.627926261E0
8.189010000E0,-9.291471255E-1,-2.993642852E0,-3.839464231E0,4.956480352E0
8.198961000E0,-9.278870505E-1,-3.016087974E0,-3.889387173E0,5.008502134E0
8.208911000E0,-6.685659599E-1,-3.228249516E0,-3.374775478E0,4.717805094E0
8.218861000E0,-2.999095380E-2,-3.322013712E0,-2.922733083E0,4.424821266E0
8.228812000E0,8.064088064E-1,-2.979807755E0,-2.974198521E0,4.286654437E0
8.238762000E0,1.929617418E0,-2.764440184E0,-3.505863036E0,4.863808029E0
8.248712000E0,3.168340114E0,-2.439781137E0,-4.408215880E0,5.951745821E0
8.258662000E0,4.297133986E0,-2.530522030E0,-5.442832743E0,7.381959801E0
8.268613000E0,4.911268215E0,-2.687275064E0,-6.057418962E0,8.248292383E0
8.278563000E0,5.279325297E0,-2.702192481E0,-6.186599743E0,8.570130465E0
8.288513000E0,5.778735402E0,-2.688532508E0,-5.615495174E0,8.494455600E0
8.298464000E0,6.262541041E0,-2.549271127E0,-4.638732417E0,8.199758656E0
8.308414000E0,6.916326410E0,-2.248200185E0,-3.973301150E0,8.287164600E0
8.318364000E0,7.811138100E0,-1.648618653E0,-3.826455345E0,8.852885540E0
8.328315000E0,8.840167948E0,-1.315306749E0,-3.889322269E0,9.747072838E0
8.338265000E0,9.733632440E0,-1.273348737E0,-4.109773993E0,1.064214545E1
8.348215000E0,9.893101798E0,-1.907320231E0,-4.557960734E0,1.105831541E1
8.358165000E0,9.111793334E0,-2.948429549E0,-4.772742999E0,1.070033132E1
8.368116000E0,7.512922500E0,-3.416650313E0,-4.536053556E0,9.417711278E0
8.378066000E0,5.860135075E0,-3.960240809E0,-3.367460611E0,7.833548451E0
8.388016000E0,4.923079006E0,-3.890693149E0,-1.502332427E0,6.452224639E0
8.397967000E0,5.220835015E0,-3.442366367E0,1.319821823E-1,6.254951938E0
8.407917000E0,6.381681569E0,-2.952622003E0,9.382711208E-1,7.093954400E0
8.417867000E0,7.974626834E0,-2.423488162E0,7.725212681E-1,8.370469350E0
8.427818000E0,9.093415536E0,-1.532464152E0,4.777233660E-2,9.221764185E0
8.437768000E0,9.636799040E0,-1.481048708E0,-1.422698320E0,9.853196006E0
8.447718000E0,9.023079379E0,-2.703410456E0,-2.092149548E0,9.648910783E0
8.457668000E0,7.767058865E0,-3.430769877E0,-1.727625353E0,8.664991328E0
8.467619000E0,6.673852317E0,-4.034232353E0,-1.161986176E0,7.884513130E0
8.477569000E0,6.265089843E0,-4.223935617E0,1.730272973E-1,7.557970711E0
8.487519000E0,6.818360989E0,-4.242755757E0,1.185069814E0,8.117598996E0
8.497470000E0,7.527424765E0,-4.715354331E0,1.774695439E0,9.057937622E0
8.507420000E0,7.864939501E0,-4.986472179E0,1.871720628E0,9.498711294E0
8.517370000E0,7.762941840E0,-4.943626707E0,1.941527612E0,9.405968344E0
8.527321000E0,6.962441061E0,-5.464451069E0,2.247550414E0,9.131664353E0
8.537271000E0,5.010168605E0,-6.218431985E0,3.335792091E0,8.654374309E0
8.547221000E0,2.765602611E0,-6.673470494E0,4.758733070E0,8.650393440E0
8.557171000E0,9.096525085E-1,-5.951078575E0,6.295465543E0,8.710665319E0
8.567122000E0,3.438338220E-2,-5.488191349E0,6.993936503E0,8.890251645E0
8.577072000E0,-6.151007742E-2,-4.884452884E0,7.087236430E0,8.607588726E0
8.587022000E0,3.832906871E-1,-4.055285545E0,7.064479067E0,8.154699080E0
8.596973000E0,9.211243071E-1,-3.479965133E0,6.136906012E0,7.114790419E0
8.606923000E0,9.985896818E-1,-3.045304171E0,5.166455909E0,6.079747158E0
8.616873000E0,5.793424192E-1,-2.972910379E0,4.795809680E0,5.672179849E0
8.626824000E0,-2.267434748E-1,-2.910082632E0,4.809409134E0,5.625869688E0
8.636774000E0,-1.021596283E0,-2.783261787E0,4.862610610E0,5.695189820E0
8.646724000E0,-1.503633724E0,-2.536387664E0,4.970886426E0,5.779609729E0
8.656674000E0,-1.782119941E0,-2.427299670E0,4.865298575E0,5.721788654E0
8.666625000E0,-1.947080128E0,-2.171553567E0,4.405067155E0,5.283122425E0
8.676575000E0,-1.764823878E0,-1.823869354E0,3.993989183E0,4.732129788E0
8.686525000E0,-1.161631835E0,-1.617363823E0,3.558532416E0,4.077794405E0
8.696477125E0,-3.659529617E-1,-1.183630230E0,3.115875971E0,3.353145562E0
8.706427125E0,2.350422817E-1,-8.605481762E-1,2.209178061E0,2.382489400E0
8.716377125E0,4.335879976E-1,-5.415270138E-1,1.638048933E0,1.778891330E0
8.726327125E0,1.914796481E-1,-4.246704090E-1,9.624557894E-1,1.069266365E0
8.736278125E0,-2.306352353E-1,-5.244864732E-1,6.882517809E-1,8.955273230E-1
8.746228125E0,-8.056150469E-1,-5.291730165E-1,5.241958666E-1,1.097187765E0
8.756178125E0,-1.152679748E0,-4.466202718E-1,-2.581370294E-2,1.236449197E0
8.766129125E0,-1.037466503E0,-2.497018361E-1,-5.943308794E-1,1.221440521E0
8.776079125E0,-7.081381613E-1,-1.532011431E-1,-7.505392456E-1,1.043187138E0
8.786029125E0,-4.226580897E-1,-2.047385019E-1,-3.508662683E-1,5.862293520E-1
8.795980125E0,-1.952680591E-1,-2.475617552E-1,2.296289295E-1,3.900588196E-1
8.805930125E0,2.383734405E-2,-2.852546614E-1,8.700984335E-1,9.159747403E-1
8.815880125E0,2.172512510E-1,-1.821086079E-1,1.337856390E0,1.367560372E0
8.825830125E0,6.638776624E-1,-1.452220327E-1,1.232248659E0,1.407217022E0
8.835781125E0,8.649675018E-1,-1.188277012E-1,7.190022880E-1,1.131040712E0
8.845731125E0,7.918609339E-1,-2.887179673E-2,4.765258563E-1,9.246373402E-1
8.855681125E0,3.843950799E-1,-6.949825108E-2,4.856890279E-1,6.232843783E-1
8.865632125E0,-2.831993651E-1,-8.244515598E-2,6.567118996E-1,7.199094410E-1
8.875582125E0,-7.261592799E-1,5.861833692E-3,7.521279341E-1,1.045484620E0
8.885532125E0,-7.272831148E-1,4.505221188E-2,6.276658559E-1,9.617353365E-1
8.895483125E0,-3.817419058E-1,1.527006215E-1,4.381523341E-1,6.008509219E-1
8.905433125E0,7.100420147E-2,1.521948373E-1,5.271498799E-2,1.760219733E-1
8.915383125E0,4.041574994E-1,1.965167320E-1,-9.266375005E-2,4.588558388E-1
8.925333125E0,6.325152442E-1,2.841676641E-1,-1.800562352E-1,7.164126208E-1
8.935284125E0,8.381545097E-1,3.057140690E-1,-2.195664561E-1,9.187891503E-1
8.945234125E0,9.325157064E-1,2.723317301E-1,-2.077287680E-1,9.934290891E-1
8.955184125E0,8.729585990E-1,2.070440590E-1,-1.425633037E-1,9.084317550E-1
8.965135125E0,5.292010832E-1,4.058084607E-2,-1.119811964E-1,5.424392868E-1
8.975085125E0,9.914451152E-2,-1.510370886E-1,-3.029892665E-1,3.527666820E-1
8.985035125E0,-6.054879516E-2,-2.938085532E-1,-5.795333308E-1,6.525706889E-1
8.994986125E0,1.043049717E-1,-2.569190544E-1,-4.511606348E-1,5.295591053E-1
9.004936125E0,3.078673062E-1,-1.167870229E-1,-1.511423385E-1,3.623058010E-1
9.014886125E0,5.137793443E-1,9.698776603E-3,3.348185849E-1,6.133243560E-1
9.024836125E0,6.140468135E-1,5.616192162E-2,4.897639525E-1,7.874492871E-1
9.034787125E0,6.188152179E-1,1.010159129E-1,5.674032819E-1,8.456257878E-1
9.044737125E0,6.563160431E-1,5.556433618E-2,4.614698607E-1,8.042341551E-1
9.054687125E0,5.781299990E-1,1.368529129E-1,2.267649633E-1,6.359130162E-1
9.064638125E0,4.167804685E-1,2.280642146E-1,-6.792359591E-2,4.799300572E-1
9.074588125E0,2.089634076E-1,2.569395196E-1,-3.594891572E-1,4.887904220E-1
9.084538125E0,-2.337716818E-3,2.804833335E-1,-6.335235965E-1,6.928408999E-1
9.094489125E0,-1.813569483E-1,2.542503852E-1,-8.323084635E-1,8.889718665E-1
9.104439125E0,-3.155251122E-1,2.858896691E-1,-6.540175027E-1,7.804023918E-1
9.114389125E0,-4.046659148E-1,2.947300744E-1,-4.403520566E-1,6.667310201E-1
9.124339125E0,-3.994159922E-1,2.339371580E-1,-1.678063184E-1,4.923603246E-1
9.134290125E0,-3.551016989E-1,8.949280500E-2,-5.882357419E-2,3.708994360E-1
9.144240125E0,-2.546424410E-1,-1.021683991E-2,1.355209172E-2,2.552073975E-1
9.154190125E0,-1.744554797E-1,-9.338003397E-4,8.478988945E-2,1.939714199E-1
9.164141125E0,-2.334050614E-1,-1.586507481E-1,-8.384380996E-2,2.944108813E-1
9.174091125E0,-3.495146844E-1,-2.090344512E-1,-2.306504381E-1,4.680336964E-1
9.184041125E0,-4.186220491E-1,-2.737210286E-1,-4.338593084E-1,6.621189628E-1
9.193991125E0,-3.082105377E-1,-2.718662918E-1,-3.936737341E-1,5.691080961E-1
9.203942125E0,-1.753620905E-1,-3.246514463E-1,-2.943049818E-1,4.719807694E-1
9.213892125E0,-6.309730411E-2,-1.345432627E-1,-3.338292360E-2,1.523075143E-1
9.223842125E0,-1.101527721E-2,-3.014935488E-1,8.913320124E-2,3.145861151E-1
9.233793125E0,-7.886607528E-2,-2.313094193E-1,1.295339531E-1,2.765916670E-1
9.243743125E0,-1.323213208E-1,-2.829116821E-1,1.200187790E-1,3.345929753E-1
9.253693125E0,-1.469305891E-1,-3.604054159E-1,4.039256573E-3,3.892261263E-1
9.263644125E0,-1.923845047E-1,-3.009825021E-1,5.055795014E-2,3.607746811E-1
9.273594125E0,-1.996420687E-1,-3.108350605E-1,9.839636028E-2,3.823051584E-1
9.283544125E0,-2.124375308E-1,-3.420387268E-1,1.001943791E-1,4.149206053E-1
9.293494125E0,-2.475906989E-1,-2.863673866E-1,1.719098943E-1,4.157648928E-1
9.303445125E0,-2.086774787E-1,-2.485569513E-1,2.456426990E-1,4.070223381E-1
9.313395125E0,-1.085760704E-1,-1.993929774E-1,3.133329910E-1,3.869417084E-1
9.323345125E0,-2.166744232E-2,-1.825746310E-1,3.366943717E-1,3.836223063E-1
9.333296125E0,6.795400143E-2,-1.513955230E-1,2.574277622E-1,3.062799429E-1
9.343246125E0,6.884160876E-2,-7.918416381E-2,2.725071466E-1,2.920093215E-1
9.353196125E0,-2.494042128E-2,-3.482426226E-2,2.223105544E-1,2.263995063E-1
9.363146125E0,-1.082421944E-1,-6.748037696E-2,1.330165547E-1,1.842915563E-1
9.373097125E0,-1.323610818E-1,-1.801117837E-2,1.586636120E-1,2.074078116E-1
9.383047125E0,-2.510040110E-1,7.677043319E-2,9.097682834E-2,2.778011812E-1
9.392997125E0,-2.764306283E-1,1.505535239E-1,-1.513645327E-1,3.492727839E-1
9.402948125E0,-1.599336272E-1,1.588290882E-1,-4.794436169E-1,5.297845092E-1
9.412898125E0,-2.781725138E-2,1.590553755E-1,-6.716930509E-1,6.908284639E-1
9.422848125E0,8.303397059E-2,2.192267329E-1,-7.220469332E-1,7.591487169E-1
9.432799125E0,2.245000443E-1,1.802585489E-1,-7.399131006E-1,7.939551692E-1
9.442749125E0,3.241126254E-1,1.571550304E-1,-6.065661782E-1,7.054567500E-1
9.452699125E0,3.166626880E-1,1.602680880E-1,-3.970721358E-1,5.325668024E-1
9.462649125E0,2.736771744E-1,7.318199694E-2,-1.840381891E-1,3.378237048E-1
9.472600125E0,3.098117977E-1,3.909799218E-2,-1.850240296E-1,3.629681729E-1
9.482550125E0,3.471284357E-1,6.664890289E-2,-2.221748990E-1,4.174948058E-1
9.492500125E0,3.875347424E-1,1.038249153E-1,-1.271190530E-1,4.208586974E-1
9.502451125E0,4.407312486E-1,6.128934503E-2,-1.694885623E-1,4.761583665E-1
9.512401125E0,4.894391397E-1,1.190879023E-1,-8.999332666E-2,5.116946343E-1
9.522351125E0,4.822520345E-1,1.236499000E-1,-4.328401387E-2,4.997297554E-1
9.532301125E0,4.439624199E-1,9.027048469E-2,7.421227634E-2,4.590847990E-1
9.542252125E0,3.146073917E-1,9.597035050E-2,1.385632235E-1,3.569143958E-1
9.552202125E0,1.677463844E-1,9.113119483E-2,3.624221206E-2,1.943122284E-1
9.562152125E0,9.108266294E-2,6.751896858E-2,-1.119876283E-1,1.593615120E-1
9.572103125E0,1.031308508E-1,1.115081567E-1,-8.847129643E-2,1.757760270E-1
9.582053125E0,1.378542486E-1,2.985237479E-2,-2.635632455E-2,1.434908150E-1
9.592003125E0,1.358960161E-1,1.057936728E-2,1.248175889E-1,1.848217539E-1
9.601954125E0,1.498477650E-1,-5.735358417E-2,3.073700005E-1,3.467277080E-1
9.611904125E0,1.365342396E-1,-1.087172806E-1,4.015095878E-1,4.378024609E-1
9.621854125E0,1.023189649E-1,-1.609925580E-1,4.818626100E-1,5.182464175E-1
9.631804125E0,3.878428906E-2,-2.667610878E-1,5.274597824E-1,5.923508429E-1
9.641755125E0,2.577160299E-2,-2.626399702E-1,5.869078392E-1,6.435097056E-1
9.651705125E0,8.175430745E-2,-3.540372133E-1,6.150358701E-1,7.143495200E-1
9.661655125E0,7.453416556E-2,-4.601173997E-1,5.137275964E-1,6.936709642E-1
9.671606125E0,-6.249796450E-2,-6.080934709E-1,5.322761339E-1,8.105563199E-1
9.681556125E0,-1.836736152E-1,-6.891832423E-1,6.053897184E-1,9.355245852E-1
9.691505125E0,-1.623961821E-1,-8.225763577E-1,6.806083006E-1,1.079922239E0
9.701456125E0,-6.407875925E-2,-8.757187772E-1,8.953741926E-1,1.254067147E0
9.711406125E0,1.908560425E-2,-8.641050375E-1,1.244016180E0,1.514799667E0
9.721356125E0,1.028007755E-1,-8.976054901E-1,1.686435227E0,1.913198210E0
9.731306125E0,1.593532911E-1,-9.875029224E-1,1.997057449E0,2.233560823E0
9.741257125E0,1.657264638E-1,-1.166630035E0,2.319520283E0,2.601665859E0
9.751207125E0,1.629531294E-1,-1.325776042E0,2.598924220E0,2.922095642E0
9.761157125E0,1.460049748E-1,-1.418747941E0,2.845730515E0,3.183134514E0
9.771108125E0,1.511242121E-1,-1.601299183E0,3.123213642E0,3.513041568E0
9.781058125E0,1.201608664E-1,-1.884863999E0,3.587085539E0,4.053928168E0
9.791008125E0,2.578458381E-1,-2.078740713E0,4.125177314E0,4.626525186E0
9.800958125E0,5.037934694E-1,-2.104314095E0,4.320776033E0,4.832292541E0
9.810909125E0,6.140751725E-1,-2.131145799E0,4.424409159E0,4.949168328E0
9.820859125E0,3.650682780E-1,-2.263198147E0,4.417293683E0,4.976728261E0
9.830809125E0,-1.759833571E-1,-2.195976217E0,4.438018554E0,4.954724046E0
9.840760125E0,-5.176113170E-1,-2.237902508E0,4.561631616E0,5.107309675E0
9.850710125E0,-6.255941874E-1,-2.419433411E0,4.729990497E0,5.349564114E0
9.860660125E0,-2.519883898E-1,-2.625579337E0,4.985849451E0,5.640554915E0
9.870610125E0,6.087071362E-1,-2.551685734E0,4.574655120E0,5.273432841E0
9.880561125E0,1.499357656E0,-2.472427311E0,3.844904480E0,4.810848225E0
9.890511125E0,2.175627907E0,-2.052667101E0,3.080589194E0,4.293812851E0
9.900461125E0,2.478649918E0,-1.609740516E0,2.161778192E0,3.661728403E0
9.910412125E0,2.559165493E0,-1.459988937E0,1.884699692E0,3.497568962E0
9.920362125E0,2.543391459E0,-1.553747871E0,1.965084874E0,3.569948336E0
9.930312125E0,2.739270260E0,-1.564930963E0,2.055743614E0,3.765460434E0
9.940263125E0,3.429694281E0,-1.633221472E0,1.958746492E0,4.273979768E0
9.950213125E0,4.358385909E0,-1.646549323E0,1.482130589E0,4.889106614E0
9.960163125E0,5.347210886E0,-1.407291783E0,7.180889529E-1,5.575731896E0
9.970113125E0,6.283260065E0,-1.270723338E0,2.669166237E-1,6.416022080E0
9.980064125E0,7.340889230E0,-1.823690136E0,4.126999891E-1,7.575277003E0
9.990014125E0,8.064468133E0,-2.576299004E0,6.333668911E-1,8.489647605E0
9.999964125E0,8.515809447E0,-3.382201442E0,8.084290195E-1,9.198470232E0
1.000991513E1,8.700175665E0,-4.478768969E0,5.134825981E-1,9.798780152E0
1.001986513E1,8.343641106E0,-4.459937426E0,-5.936210275E-1,9.479439576E0
1.002981512E1,7.419524340E0,-3.014764164E0,-2.897156777E0,8.516552224E0
1.003976613E1,6.618955148E0,-2.257910218E0,-6.307848777E0,9.417944680E0
1.004971613E1,6.041437937E0,-1.748984063E0,-8.490264716E0,1.056610205E1
1.005966612E1,5.083216701E0,-9.636198239E-1,-7.939133066E0,9.476153705E0
1.006961612E1,4.576135050E0,-6.014660905E-1,-6.207269651E0,7.735177436E0
1.007956713E1,4.026578640E0,-8.259528324E-1,-4.711425587E0,6.252444697E0
1.008951712E1,3.675303066E0,-1.513041456E0,-3.690977697E0,5.424063370E0
1.009946712E1,3.070761194E0,-1.871775007E0,-3.295356256E0,4.877754487E0
1.010941813E1,2.023191580E0,-1.453826264E0,-3.612317444E0,4.388137679E0
1.011936812E1,9.343780446E-1,-1.234412275E0,-3.857131008E0,4.156235750E0
1.012931812E1,2.419343948E-2,-1.152119000E0,-3.958745091E0,4.123060296E0
1.013926913E1,-5.225580615E-1,-1.397049508E0,-3.542578872E0,3.843784505E0
1.014921912E1,-7.771984559E-1,-1.435943725E0,-3.369508306E0,3.744270028E0
1.015916912E1,-8.539174336E-1,-1.851998700E0,-3.379847937E0,3.947460734E0
1.016911912E1,-9.056600296E-1,-1.905734027E0,-3.576402676E0,4.152432826E0
1.017907012E1,-1.045804340E0,-1.890082931E0,-4.063080468E0,4.601602231E0
1.018902012E1,-1.384429463E0,-1.498085886E0,-4.691689480E0,5.115941403E0
1.019897012E1,-1.682097763E0,-1.382527656E0,-5.037152921E0,5.487599216E0
1.020892112E1,-1.952976460E0,-1.518180720E0,-4.807574862E0,5.406640899E0
1.021887112E1,-2.204188632E0,-1.518891449E0,-4.375176773E0,5.129098415E0
1.022882112E1,-2.052322408E0,-2.009640365E0,-3.857701696E0,4.809630343E0
1.023877113E1,-1.826992936E0,-2.327426011E0,-3.650118524E0,4.698742413E0
1.024872212E1,-1.527313778E0,-2.386420616E0,-3.786391978E0,4.729107204E0
1.025867212E1,-1.312613375E0,-2.321828763E0,-4.227002481E0,4.998138919E0
1.026862213E1,-1.223842117E0,-2.018698141E0,-4.828608466E0,5.374792222E0
1.027857312E1,-1.187945475E0,-1.984870829E0,-5.298863184E0,5.781771156E0
1.028852312E1,-1.393141814E0,-1.914464213E0,-5.383597525E0,5.881253237E0
1.029847313E1,-1.599484207E0,-2.019403315E0,-5.187398297E0,5.791842588E0
1.030842313E1,-1.676412515E0,-2.193666713E0,-4.720944269E0,5.468989611E0
1.031837412E1,-1.663769081E0,-2.269340063E0,-4.325365512E0,5.160118089E0
1.032832413E1,-1.425533634E0,-2.320868651E0,-4.157496044E0,4.970246553E0
1.033827413E1,-9.729568040E-1,-2.237828394E0,-4.075321029E0,4.750027617E0
1.034822512E1,-5.165015155E-1,-1.992401896E0,-4.167650319E0,4.648198394E0
1.035817513E1,-9.034006655E-2,-1.772781353E0,-4.407187940E0,4.751233586E0
1.036812513E1,1.364108634E-1,-1.787530078E0,-4.588339359E0,4.926127259E0
1.037807612E1,2.269199145E-1,-1.897810027E0,-4.563507403E0,4.947602992E0
1.038802613E1,5.055251223E-1,-2.041865540E0,-4.268177404E0,4.758372504E0
1.039797613E1,9.281916904E-1,-2.111355605E0,-3.794327234E0,4.440301956E0
1.040792612E1,1.389903626E0,-2.128796826E0,-3.335538322E0,4.193974715E0
1.041787713E1,1.805299181E0,-1.860987771E0,-3.359904839E0,4.243977043E0
1.042782713E1,2.308423437E0,-1.510584894E0,-3.919870462E0,4.793335992E0
1.043777712E1,2.826885524E0,-1.443915088E0,-4.303753034E0,5.347753054E0
1.044772813E1,3.429217148E0,-1.580959205E0,-4.402300837E0,5.799932320E0
1.045767813E1,4.255366740E0,-1.715975069E0,-4.094244666E0,6.149435414E0
1.046762812E1,4.842259376E0,-1.849530590E0,-3.827908963E0,6.443688873E0
1.047757812E1,5.489439729E0,-2.002725886E0,-3.575078866E0,6.850259004E0
1.048752913E1,6.123521735E0,-2.095047574E0,-3.665931149E0,7.438131080E0
1.049747912E1,6.358074020E0,-2.392807530E0,-4.079012961E0,7.923949764E0
1.050742912E1,5.771559114E0,-2.724908913E0,-4.065919291E0,7.567544045E0
1.051738013E1,4.942012875E0,-2.974705182E0,-3.218633770E0,6.605449683E0
1.052733012E1,4.861257564E0,-2.865395286E0,-2.352446539E0,6.113617585E0
1.053728012E1,4.840635020E0,-2.634834310E0,-1.962480524E0,5.850250340E0
1.054723012E1,5.162371629E0,-2.870043530E0,-2.072264922E0,6.259513767E0
1.055718113E1,6.036368401E0,-2.913524888E0,-2.348659297E0,7.102293379E0
1.056713112E1,6.945832629E0,-3.109651610E0,-2.749625679E0,8.091660239E0
1.057708112E1,7.801524693E0,-3.601006005E0,-2.949826741E0,9.084740480E0
1.058703213E1,8.219455601E0,-3.649472991E0,-2.151443238E0,9.246989321E0
1.059698212E1,7.985114400E0,-4.156062307E0,-1.097595468E0,9.068606381E0
1.060693212E1,7.198576187E0,-4.541735880E0,7.586516726E-1,8.545315459E0
1.061688313E1,6.506243634E0,-4.511399356E0,1.137861149E0,7.998666037E0
1.062683312E1,6.169882554E0,-4.676631438E0,1.798526351E0,7.948146285E0
1.063678312E1,6.053811815E0,-4.939595636E0,2.603012009E0,8.235527552E0
1.064673313E1,5.592578766E0,-4.721911691E0,4.072949399E0,8.376294174E0
1.065668412E1,4.634605745E0,-3.999178880E0,5.302478517E0,8.098720920E0
1.066663412E1,3.610494867E0,-3.543602135E0,5.778139570E0,7.679823316E0
1.067658413E1,2.988513674E0,-3.400837687E0,5.500113822E0,7.123774492E0
1.068653512E1,2.500005996E0,-3.148805736E0,4.893221369E0,6.333136893E0
1.069648992E1,1.863365541E0,-2.880579920E0,4.409134478E0,5.586621400E0
1.070643992E1,1.166803917E0,-2.614792394E0,4.069158649E0,4.975602753E0
1.071638992E1,5.398998798E-1,-2.392025172E0,3.525445361E0,4.294419786E0
1.072634092E1,1.447530860E-1,-2.148664057E0,3.102815630E0,3.776926730E0
1.073629092E1,4.215433180E-2,-1.930546541E0,2.852696888E0,3.444802820E0
1.074624092E1,1.780630656E-1,-1.637371241E0,2.999952582E0,3.422339336E0
1.075619192E1,5.451096028E-1,-1.371820527E0,3.210433635E0,3.533542155E0
1.076614192E1,1.015419284E0,-1.251712285E0,3.184952053E0,3.569562935E0
1.077609192E1,1.324000389E0,-1.095591043E0,3.131388050E0,3.571958550E0
1.078604192E1,1.331642992E0,-9.295435667E-1,2.972957157E0,3.387594804E0
1.079599292E1,9.526121481E-1,-7.099975759E-1,2.722139672E0,2.970119670E0
1.080594292E1,3.077632257E-1,-6.468552482E-1,2.185420239E0,2.299826414E0
1.081589292E1,-3.096480757E-1,-7.558467633E-1,1.158361487E0,1.417387595E0
1.082584392E1,-6.483465806E-1,-8.023479152E-1,3.446530169E-1,1.087612600E0
1.083579392E1,-4.653132355E-1,-7.969474268E-1,-1.576374257E-1,9.362110693E-1
1.084574392E1,1.773475125E-2,-5.833182335E-1,-1.351344162E-1,5.990292091E-1
1.085569392E1,4.384236449E-1,-4.892417961E-1,2.100512820E-1,6.897060016E-1
1.086564492E1,6.856820758E-1,-3.629659116E-1,7.079036880E-1,1.050253204E0
1.087559492E1,7.272319517E-1,-3.369025326E-1,1.210729151E0,1.451976138E0
1.088554492E1,4.999438088E-1,-2.541340256E-1,1.545121474E0,1.643754326E0
1.089549592E1,1.288879819E-1,-2.213603818E-1,1.571646198E0,1.592383215E0
1.090544592E1,-2.037194784E-1,-2.794986624E-1,1.017959899E0,1.075110917E0
1.091539592E1,-4.178034389E-1,-3.437969846E-1,2.608413666E-1,6.006615509E-1
1.092534692E1,-4.560394053E-1,-5.085779536E-1,-2.767089558E-1,7.370151425E-1
1.093529692E1,-4.626137222E-1,-4.496818739E-1,-4.999340147E-1,8.161858016E-1
1.094524692E1,-4.372066931E-1,-4.348866642E-1,-4.304234844E-1,7.520242544E-1
1.095519692E1,-2.816080454E-1,-3.524976414E-1,-8.860285878E-3,4.512606598E-1
1.096514792E1,-4.214015231E-2,-2.819790512E-1,4.638531858E-1,5.444701605E-1
1.097509792E1,2.462573875E-1,-1.768911374E-1,9.005308521E-1,9.502047100E-1
1.098504792E1,4.916052407E-1,9.647379577E-2,1.101485621E0,1.210063419E0
1.099499892E1,5.257727145E-1,2.153336567E-1,9.003577745E-1,1.064635925E0
1.100494892E1,3.058910935E-1,1.092347592E-1,5.102724767E-1,6.048798179E-1
1.101489892E1,-2.941310272E-2,9.666558444E-2,1.442174810E-1,1.760910209E-1
1.102484892E1,-3.684459221E-1,1.160268849E-1,1.888533711E-2,3.867444783E-1
1.103479992E1,-6.257444608E-1,6.164660990E-2,-7.216925919E-2,6.329019172E-1
1.104474992E1,-7.494329524E-1,3.662929773E-2,-8.107983112E-2,7.546955642E-1
1.105469992E1,-6.284742334E-1,-3.506107450E-2,-2.570085168E-2,6.299759319E-1
1.106465092E1,-3.002267495E-1,3.199713349E-2,1.559469956E-1,3.398225759E-1
1.107460092E1,1.179219675E-1,-4.801148772E-3,1.946280813E-1,2.276153147E-1
1.108455092E1,4.090108345E-1,9.181122601E-2,1.723630536E-1,4.532418628E-1
1.109450092E1,3.624433167E-1,1.360226083E-1,-2.418928796E-1,4.564860053E-1
1.110445192E1,2.144847871E-1,5.206594706E-2,-6.668667591E-1,7.024427814E-1
1.111440192E1,7.388892531E-2,1.397712582E-1,-7.585364825E-1,7.748375140E-1
1.112435192E1,4.438606784E-2,2.317602396E-2,-8.858397228E-1,8.872537774E-1
1.113430292E1,2.378311113E-2,-4.875583827E-2,-8.019608295E-1,8.037934686E-1
1.114425292E1,5.356268808E-2,2.036351323E-2,-5.955465156E-1,5.982969885E-1
1.115420292E1,1.778449644E-1,-1.019421118E-1,-6.708188921E-1,7.014406686E-1
1.116415292E1,3.025647587E-1,-9.725673795E-2,-5.031605083E-1,5.951258719E-1
1.117410392E1,3.579070468E-1,-1.169472367E-1,-3.998296827E-1,5.492157003E-1
1.118405392E1,4.059332988E-1,-1.232698309E-1,-2.161505127E-1,4.761284894E-1
1.119400392E1,4.982168336E-1,-1.359290528E-1,5.211506367E-2,5.190498055E-1
1.120395492E1,5.158983752E-1,-1.776308101E-1,2.722463608E-1,6.097720223E-1
1.121390492E1,3.344962572E-1,-1.939270002E-1,4.085437882E-1,5.624975149E-1
1.122385492E1,1.574485606E-1,-2.456766129E-1,4.294171786E-1,5.191783515E-1
1.123380492E1,1.325857611E-1,-2.393487561E-1,4.014136934E-1,4.857980695E-1
1.124375592E1,2.075768866E-1,-1.704545224E-1,2.979331791E-1,4.011322566E-1
1.125370592E1,2.659918866E-1,-1.407898432E-1,6.640390456E-2,3.081930275E-1
1.126365592E1,2.469801034E-1,-1.039927304E-2,-1.783482635E-1,3.048203068E-1
1.127360692E1,2.273210335E-1,1.330884755E-1,-1.844094872E-1,3.215497684E-1
1.128355692E1,1.929858908E-1,2.132204729E-1,-7.073318303E-2,2.961582471E-1
1.129350692E1,9.646268606E-2,1.864484113E-1,-1.217694354E-1,2.426846829E-1
1.130345692E1,-5.976322174E-2,1.497337443E-1,-2.483698404E-1,2.961070996E-1
1.131340792E1,-1.796931231E-1,8.511382520E-2,-3.733786333E-1,4.230196042E-1
1.132335792E1,-2.295888761E-1,2.222351253E-2,-4.414899248E-1,4.981147360E-1
1.133330792E1,-2.731893705E-1,-6.208222747E-2,-4.635000139E-1,5.415892337E-1
1.134325892E1,-3.466347845E-1,-1.281797379E-1,-4.813264203E-1,6.068449900E-1
1.135320892E1,-3.505098805E-1,-3.345952213E-2,-3.248742253E-1,4.790824336E-1
1.136315892E1,-2.319814105E-1,-1.246135211E-1,-2.112867987E-1,3.376181509E-1
1.137310892E1,-4.660888687E-2,-8.574357033E-2,2.201125860E-2,1.000442087E-1
1.138305992E1,1.605627877E-1,-1.233832669E-1,1.960875463E-1,2.818761522E-1
1.139300992E1,2.671953897E-1,-8.183178306E-2,6.389954209E-2,2.866582782E-1
1.140295992E1,3.043797344E-1,-3.228949428E-2,-3.089341307E-1,4.348907118E-1
1.141291092E1,3.262715636E-1,-7.004613519E-2,-5.336677712E-1,6.294131269E-1
1.142286092E1,3.043309101E-1,-1.049838334E-1,-5.060905480E-1,5.998054276E-1
1.143281092E1,2.459523091E-1,-2.823035717E-1,-2.366163522E-1,4.429166322E-1
1.144276092E1,1.343888962E-1,-2.611518538E-1,2.144115508E-1,3.636385283E-1
1.145271192E1,4.354567677E-2,-2.482008559E-1,6.071041220E-1,6.573243536E-1
1.146266192E1,1.482546911E-2,-2.297827113E-1,8.080173755E-1,8.401856747E-1
1.147261192E1,-7.261803299E-3,-1.935779214E-1,7.988337386E-1,8.219856978E-1
1.148256292E1,2.323449612E-2,-9.877233624E-2,6.082285416E-1,6.166342312E-1
1.149251292E1,9.354317129E-2,-2.633585930E-2,3.759496540E-1,3.883066375E-1
1.150246292E1,1.504703473E-1,-7.183596790E-2,1.831920969E-1,2.477116793E-1
1.151241392E1,1.070724589E-1,3.229241788E-2,7.170265138E-2,1.328479654E-1
1.152236392E1,5.125055283E-2,9.506344736E-2,4.503525496E-2,1.170121890E-1
1.153231392E1,3.495100066E-2,1.108673018E-1,2.806488097E-2,1.195858211E-1
1.154226392E1,3.041970089E-2,1.641500545E-1,-3.903835058E-2,1.714485095E-1
1.155221492E1,-1.329627603E-2,1.469715196E-1,-9.754325151E-2,1.768957446E-1
1.156216492E1,-6.531763807E-2,1.265214676E-1,-2.393224436E-1,2.784767631E-1
1.157211492E1,-1.191340953E-1,9.697548687E-2,-4.385435128E-1,4.646693344E-1
1.158206592E1,-9.879017025E-2,-5.188877642E-2,-5.775739288E-1,5.882546949E-1
1.159201592E1,-4.792816490E-2,-2.084298491E-2,-4.810439998E-1,4.838748482E-1
1.160196592E1,-3.439624608E-3,4.963701367E-3,-3.200479335E-1,3.201049032E-1
1.161191592E1,2.429108799E-2,1.430462837E-2,-1.863028157E-1,1.884235083E-1
1.162186692E1,4.177250862E-2,1.510569692E-2,-8.433731496E-2,9.532002545E-2
1.163181692E1,8.237001926E-2,-1.472504318E-2,-4.925109744E-3,8.382066377E-2
1.164176692E1,1.578850552E-1,-8.388006270E-2,1.211847138E-1,2.159844681E-1
1.165171792E1,2.299603204E-1,-1.085377711E-1,2.660722858E-1,3.680443696E-1
1.166166792E1,2.799528448E-1,-1.354776478E-1,3.104754567E-1,4.394573900E-1
1.167161792E1,3.115539756E-1,-1.695827025E-1,2.390365148E-1,4.277413098E-1
1.168156792E1,3.199479461E-1,-2.977384669E-1,2.277560663E-1,4.928363913E-1
1.169151400E1,3.246895994E-1,-2.844068152E-1,3.448296028E-1,5.524654084E-1
1.170146400E1,3.187062898E-1,-2.892401236E-1,4.185939825E-1,6.003786059E-1
1.171141400E1,3.376040523E-1,-3.260424989E-1,5.310604978E-1,7.087351124E-1
1.172136500E1,3.032886440E-1,-3.472152668E-1,7.609426117E-1,8.897056262E-1
1.173131500E1,1.696344504E-1,-4.241552693E-1,9.562565714E-1,1.059768923E0
1.174126500E1,-2.712727994E-2,-3.729599726E-1,1.114474626E0,1.175537631E0
1.175121500E1,-1.270389462E-1,-2.536551386E-1,1.083588463E0,1.120108825E0
1.176116600E1,-1.685797589E-1,-3.172365922E-1,8.877640414E-1,9.576968120E-1
1.177111600E1,-2.554984733E-1,-3.844655389E-1,7.974023402E-1,9.213814154E-1
1.178106600E1,-3.332418832E-1,-4.506203520E-1,7.384039342E-1,9.270109085E-1
1.179101700E1,-3.700653085E-1,-5.206156164E-1,9.880163080E-1,1.176505494E0
1.180096700E1,-4.602475002E-1,-6.528550762E-1,1.217699032E0,1.456309872E0
1.181091700E1,-5.468166974E-1,-8.793861508E-1,1.360470496E0,1.709739300E0
1.182086700E1,-6.460193887E-1,-1.027673294E0,1.701950814E0,2.090476028E0
1.183081800E1,-7.171110061E-1,-1.181022372E0,2.057276169E0,2.478194357E0
1.184076800E1,-6.852653155E-1,-1.373826122E0,2.481791042E0,2.918265502E0
1.185071800E1,-6.681054917E-1,-1.695292590E0,2.938486066E0,3.457612222E0
1.186066900E1,-7.496680105E-1,-1.785120440E0,3.756937798E0,4.226492486E0
1.187061900E1,-8.499650082E-1,-1.943761833E0,4.541710153E0,5.012761882E0
1.188056900E1,-8.983159268E-1,-2.136624055E0,5.300519115E0,5.785122017E0
1.189051900E1,-6.096146241E-1,-2.311952232E0,5.867226579E0,6.335700501E0
1.190047000E1,-1.328458160E-1,-2.299352944E0,5.823715693E0,6.262614186E0
1.191042000E1,4.568733644E-1,-2.049054984E0,5.346439054E0,5.743846286E0
1.192037000E1,9.401872534E-1,-1.705216776E0,4.435635813E0,4.844231765E0
1.193032100E1,1.173939347E0,-1.428247035E0,3.736352676E0,4.168735360E0
1.194027100E1,1.201610126E0,-1.392590421E0,3.348362435E0,3.820301817E0
1.195022100E1,9.939284277E-1,-1.524502729E0,3.284896756E0,3.755336069E0
1.196017200E1,8.014021280E-1,-1.796916905E0,3.426389435E0,3.951113804E0
1.197012200E1,1.189575679E0,-1.976515888E0,3.162016350E0,3.914083897E0
1.198007200E1,1.973006097E0,-1.491336445E0,2.442443959E0,3.475970360E0
1.199002200E1,2.843467058E0,-1.328308325E0,1.614271231E0,3.529246311E0
1.199997300E1,3.632050627E0,-1.084351232E0,8.827635026E-1,3.891899377E0
1.200992300E1,4.105169896E0,-9.901414785E-1,4.850458342E-1,4.250655183E0
1.201987300E1,4.381039191E0,-1.198686372E0,3.773956704E-1,4.557716633E0
1.202982400E1,4.447223241E0,-1.472780891E0,6.133553803E-1,4.724730990E0
1.203977400E1,4.474920332E0,-1.510992445E0,7.533798230E-1,4.782843433E0
1.204972400E1,4.627315729E0,-1.486254630E0,4.213562071E-1,4.878375214E0
1.205967400E1,5.038119466E0,-1.391046172E0,-1.485058290E-1,5.228738967E0
1.206962500E1,5.337499246E0,-1.393487530E0,-1.019607645E0,5.609840055E0
1.207957500E1,5.471306929E0,-1.556609060E0,-1.492629265E0,5.881001054E0
1.208952500E1,5.597926630E0,-1.779406249E0,-1.567737919E0,6.079545323E0
1.209947600E1,5.696222418E0,-2.002583068E0,-1.467913669E0,6.213860259E0
1.210942600E1,5.763729107E0,-2.121319114E0,-1.418541534E0,6.303398138E0
1.211937600E1,5.772163131E0,-2.113680019E0,-1.496459191E0,6.326523575E0
1.212932600E1,5.592937785E0,-2.096250639E0,-1.543632188E0,6.169118263E0
1.213927700E1,5.127564908E0,-2.116022414E0,-1.714519404E0,5.805949494E0
1.214922700E1,4.341696201E0,-2.250161342E0,-2.381778804E0,5.439340239E0
1.215917700E1,3.455386947E0,-2.077900176E0,-3.569592424E0,5.385105214E0
1.216912800E1,2.597096381E0,-2.006803296E0,-4.365363976E0,5.461553966E0
1.217907800E1,2.056797282E0,-1.679634623E0,-4.503269680E0,5.227908314E0
1.218902800E1,1.589681935E0,-1.216014157E0,-3.982672482E0,4.457292809E0
1.219897900E1,1.243027416E0,-7.801612401E-1,-3.492676395E0,3.788476886E0
1.220892900E1,1.210498186E0,-5.404655249E-1,-3.298551174E0,3.554975203E0
1.221887900E1,1.139845694E0,-5.415530339E-1,-3.410879695E0,3.636843163E0
1.222882900E1,1.100832487E0,-9.151885792E-1,-3.534350671E0,3.813271163E0
1.223878000E1,9.886945850E-1,-1.131255550E0,-3.595520732E0,3.896796818E0
1.224873000E1,8.425714964E-1,-1.427367906E0,-3.570584697E0,3.936544289E0
1.225868000E1,7.154501045E-1,-1.587101266E0,-3.325620275E0,3.753732741E0
1.226863100E1,4.864047271E-1,-1.429321022E0,-3.185159630E0,3.524881560E0
1.227858100E1,4.148084950E-1,-1.687912234E0,-3.056972290E0,3.516559879E0
1.228853100E1,9.987278223E-2,-1.626968021E0,-2.892439828E0,3.320121635E0
1.229848100E1,-2.267070758E-1,-1.509852238E0,-2.755569373E0,3.150271806E0
1.230843200E1,-6.293761665E-1,-1.581221891E0,-2.761323034E0,3.243652559E0
1.231838200E1,-8.549792880E-1,-1.612622462E0,-2.691564581E0,3.252085590E0
1.232833200E1,-1.144082002E0,-1.647708972E0,-2.632369709E0,3.309567762E0
1.233828300E1,-1.217918887E0,-1.441174644E0,-2.730177255E0,3.318761608E0
1.234823300E1,-1.146637235E0,-1.313588252E0,-3.043000953E0,3.507156376E0
1.235818300E1,-1.115082151E0,-1.149166887E0,-3.414516664E0,3.771328252E0
1.236813300E1,-1.136402269E0,-1.300361558E0,-3.610633446E0,4.002377316E0
1.237808400E1,-1.193098626E0,-1.386837054E0,-3.427216816E0,3.884921679E0
1.238803400E1,-1.272785066E0,-1.285456859E0,-3.243022506E0,3.713431854E0
1.239798400E1,-1.365785615E0,-1.371814826E0,-3.173790303E0,3.717551769E0
1.240793500E1,-1.419137365E0,-1.298628151E0,-3.293726052E0,3.814317402E0
1.241788500E1,-1.463535274E0,-1.241887940E0,-3.626479400E0,4.103117594E0
1.242783500E1,-1.427957890E0,-1.160160091E0,-3.887805501E0,4.301170397E0
1.243778600E1,-1.366953304E0,-1.120466121E0,-3.911959180E0,4.292718287E0
1.244773600E1,-1.343168585E0,-1.084002884E0,-3.661344008E0,4.047790021E0
1.245768600E1,-1.320442212E0,-1.170825412E0,-3.446551219E0,3.872094406E0
1.246763600E1,-1.375889604E0,-1.299653168E0,-3.343504568E0,3.842029849E0
1.247758700E1,-1.467048281E0,-1.464755441E0,-3.246181172E0,3.851679032E0
1.248753700E1,-1.505572661E0,-1.667831726E0,-3.063024158E0,3.798753572E0
1.249748700E1,-1.463798983E0,-1.750741882E0,-2.895163461E0,3.686431346E0
1.250743800E1,-1.405154334E0,-1.826176957E0,-2.795474281E0,3.622714098E0
1.251738800E1,-1.281136059E0,-1.563529532E0,-2.698723912E0,3.371801440E0
1.252733800E1,-1.062194670E0,-1.399463677E0,-2.778500984E0,3.287373392E0
1.253728900E1,-9.020096129E-1,-1.377665988E0,-2.881461096E0,3.318795409E0
1.254723900E1,-7.843191952E-1,-1.488564426E0,-2.822829895E0,3.286236338E0
1.255718900E1,-7.976748204E-1,-1.546093281E0,-2.737835938E0,3.243830325E0
1.256713900E1,-7.883099198E-1,-1.454798656E0,-2.666609834E0,3.138260612E0
1.257709000E1,-3.350495499E-1,-1.380705225E0,-2.576228253E0,2.942032822E0
1.258704000E1,3.578753257E-1,-1.268527854E0,-2.553233492E0,2.873367177E0
1.259699000E1,1.082230155E0,-1.088812585E0,-2.557517163E0,2.982889369E0
1.260694100E1,1.628262448E0,-1.017783460E0,-2.820931889E0,3.412444650E0
1.261689100E1,1.798310589E0,-9.443359260E-1,-3.259544399E0,3.840614665E0
1.262684100E1,1.940800218E0,-9.355930960E-1,-3.605955673E0,4.200589988E0
1.263679100E1,2.357748794E0,-1.033881648E0,-3.866207348E0,4.644938094E0
1.264674200E1,2.988601382E0,-9.065664212E-1,-3.996437997E0,5.071993451E0
1.265669200E1,3.863409163E0,-7.322389955E-1,-4.318314355E0,5.840371836E0
1.266664200E1,4.329731044E0,-8.487438172E-1,-4.900086000E0,6.593768254E0
1.267659300E1,4.162424662E0,-1.223814562E0,-4.958575698E0,6.588700487E0
1.268654300E1,3.617872884E0,-1.633682086E0,-4.235055851E0,5.804620524E0
1.269649292E1,3.325041985E0,-2.114242083E0,-2.899020284E0,4.891854699E0
1.270644392E1,3.601539856E0,-2.535754411E0,-1.737114800E0,4.734839764E0
1.271639392E1,3.970142484E0,-2.691527744E0,-1.449041780E0,5.010596274E0
1.272634392E1,4.655916799E0,-2.334376304E0,-1.318612034E0,5.372672674E0
1.273629392E1,6.000548943E0,-1.960004228E0,-1.603986563E0,6.513138804E0
1.274624492E1,7.217566774E0,-2.071359188E0,-2.228273313E0,7.832560308E0
1.275619492E1,7.709887129E0,-1.910717755E0,-1.890428794E0,8.164981501E0
1.276614492E1,7.425756887E0,-1.992757992E0,-1.150197020E0,7.774053186E0
1.277609592E1,6.518264340E0,-2.499602830E0,-5.282690370E-1,7.001060812E0
1.278604592E1,5.077315691E0,-2.882099904E0,2.943003041E-1,5.845703307E0
1.279599592E1,3.796938893E0,-3.248000241E0,1.138393246E0,5.124664838E0
1.280594592E1,3.045682194E0,-3.475484996E0,1.633968746E0,4.901533418E0
1.281589692E1,2.678750701E0,-3.384930337E0,1.916699749E0,4.723049506E0
1.282584692E1,2.615228889E0,-3.217492101E0,2.278140122E0,4.730919570E0
1.283579692E1,2.844980317E0,-3.230007189E0,2.431669879E0,4.943670483E0
1.284574792E1,2.991520020E0,-3.248077717E0,2.847713891E0,5.254395806E0
1.285569792E1,2.900000570E0,-3.054119141E0,3.645287554E0,5.570077952E0
1.286564792E1,2.473516940E0,-3.081703089E0,4.183723730E0,5.754886986E0
1.287559892E1,1.881846543E0,-2.700783009E0,4.771325049E0,5.796647134E0
1.288554892E1,1.465259618E0,-2.173421460E0,4.691509970E0,5.374105730E0
1.289549892E1,1.299734006E0,-2.013779024E0,3.966638832E0,4.634526736E0
1.290544892E1,1.092114581E0,-1.745532451E0,2.964563479E0,3.609464561E0
1.291539992E1,9.257238731E-1,-1.633242230E0,1.739119810E0,2.559098002E0
1.292534992E1,8.042397818E-1,-1.619462681E0,1.015570142E0,2.073847563E0
1.293529992E1,6.558929971E-1,-1.676757208E0,1.079328182E0,2.099204536E0
1.294525092E1,5.893089983E-1,-1.921254146E0,1.655761904E0,2.603852928E0
1.295520092E1,5.632280776E-1,-1.837565287E0,2.546408622E0,3.190308594E0
1.296515092E1,6.758928135E-1,-1.663203655E0,3.290439917E0,3.748342612E0
1.297510092E1,8.466054904E-1,-1.542576765E0,3.591936389E0,3.999786364E0
1.298505192E1,8.728249902E-1,-1.176710635E0,3.608471146E0,3.894552014E0
1.299500192E1,8.039105836E-1,-8.663392586E-1,2.979889031E0,3.205706564E0
1.300495192E1,6.341977805E-1,-7.551684862E-1,1.843290880E0,2.090504135E0
1.301490292E1,4.675518420E-1,-7.200126868E-1,9.582756150E-1,1.286590513E0
1.302485292E1,2.940205148E-1,-7.319310665E-1,5.999319273E-1,9.910042718E-1
1.303480292E1,1.530485308E-1,-8.067526227E-1,6.792511618E-1,1.065671520E0
1.304475392E1,2.414090225E-1,-9.614009517E-1,1.017614914E0,1.420602062E0
1.305470392E1,3.947361732E-1,-9.338184661E-1,1.515149231E0,1.823049853E0
1.306465392E1,3.603843659E-1,-8.397069454E-1,2.035115222E0,2.230847061E0
1.307460392E1,1.083296102E-1,-7.584826881E-1,2.223435912E0,2.351743724E0
1.308455492E1,-2.485063729E-1,-5.463989139E-1,2.031308100E0,2.118140644E0
1.309450492E1,-5.174703991E-1,-4.540649468E-1,1.379342385E0,1.541601766E0
1.310445492E1,-6.661019433E-1,-5.020191318E-1,5.871633625E-1,1.020037167E0
1.311440592E1,-6.949483046E-1,-4.284746075E-1,3.706818974E-1,8.966318667E-1
1.312435592E1,-5.197853118E-1,-3.434636933E-1,3.076325405E-1,6.948250563E-1
1.313430592E1,-1.678145045E-1,-2.916304654E-1,4.771351361E-1,5.838389970E-1
1.314425592E1,2.118504703E-1,-1.735669953E-1,7.174597925E-1,7.679548668E-1
1.315420692E1,5.553761441E-1,-1.740406197E-1,7.079007643E-1,9.164367359E-1
1.316415692E1,7.493174699E-1,-8.726618528E-2,7.251634991E-1,1.046400573E0
1.317410692E1,6.929014868E-1,-2.198026836E-2,5.993992460E-1,9.164469753E-1
1.318405792E1,4.244201481E-1,-1.604475975E-3,5.448178267E-1,6.906239938E-1
1.319400792E1,7.368105680E-2,-1.276914954E-2,5.885327804E-1,5.932645135E-1
1.320395792E1,-3.189656138E-1,-2.057927549E-2,6.650330722E-1,7.378560541E-1
1.321390892E1,-5.090542093E-1,-1.385737485E-1,5.905641031E-1,7.918995086E-1
1.322385892E1,-5.401897556E-1,-1.046370935E-1,5.508246714E-1,7.785638779E-1
1.323380892E1,-4.907728896E-1,-3.700410426E-2,5.002035713E-1,7.017342414E-1
1.324375892E1,-3.595911911E-1,-1.334568501E-2,5.046427774E-1,6.197969545E-1
1.325370992E1,-1.182274845E-1,3.818582654E-2,2.961006618E-1,3.211097902E-1
1.326365992E1,1.014149854E-1,1.400834996E-1,-9.277543187E-2,1.962540875E-1
1.327360992E1,1.659191296E-1,1.960378450E-1,-3.237416196E-1,4.132416127E-1
1.328356092E1,3.462311804E-2,2.072381866E-1,-5.226989794E-1,5.633477162E-1
1.329351092E1,-1.553397623E-1,2.168779063E-1,-6.333996356E-1,6.872856512E-1
1.330346092E1,-3.496079475E-1,1.840785348E-1,-7.330285889E-1,8.327313709E-1
1.331341192E1,-3.919719020E-1,1.000429362E-1,-8.244129682E-1,9.183176482E-1
1.332336192E1,-2.985714027E-1,3.474649429E-2,-7.934238946E-1,8.484536982E-1
1.333331192E1,-1.704302564E-1,-7.151144743E-4,-5.720266753E-1,5.968764537E-1
1.334326192E1,-2.152681679E-2,-4.393305480E-2,-1.619222653E-1,1.691518168E-1
1.335321292E1,1.349742025E-1,-1.369014448E-1,1.418908739E-1,2.389415431E-1
1.336316292E1,2.142744336E-1,-9.956287980E-2,4.769433475E-1,5.322605157E-1
1.337311292E1,1.724940312E-1,-1.254362243E-1,5.928731686E-1,6.300690686E-1
1.338306292E1,9.751664668E-2,-1.026437777E-1,5.631102562E-1,5.806362046E-1
1.339301392E1,9.575020283E-2,-1.522860539E-1,2.711412370E-1,3.253870218E-1
1.340296392E1,1.287045255E-1,-1.866899014E-1,-1.671397358E-1,2.816978265E-1
1.341291392E1,1.509447026E-1,-6.642846286E-2,-3.001118517E-1,3.424385601E-1
1.342286492E1,2.096773526E-1,-8.499103367E-2,-3.466457480E-1,4.139460625E-1
1.343281492E1,2.288342929E-1,-6.915852785E-2,-2.257346839E-1,3.287920058E-1
1.344276492E1,1.740131378E-1,-3.217254996E-2,-8.127395868E-2,1.947334113E-1
1.345271592E1,2.255908424E-1,-7.630557954E-2,9.887407780E-2,2.578562640E-1
1.346266592E1,3.302443081E-1,-6.968068421E-2,1.818630248E-1,3.833938714E-1
1.347261592E1,4.519096631E-1,-4.036566854E-2,2.486142540E-1,5.173594283E-1
1.348256692E1,4.806408343E-1,-1.667725307E-1,1.301841635E-1,5.251443658E-1
1.349251692E1,4.328565109E-1,-1.786511493E-1,1.139400136E-1,4.819370486E-1
1.350246692E1,4.912947536E-1,-1.974142796E-1,5.964335382E-2,5.328229183E-1
1.351241692E1,6.762728825E-1,-1.563539618E-1,-2.377279079E-1,7.336934859E-1
1.352236792E1,7.073101956E-1,6.177583337E-3,-5.577074289E-1,9.007571546E-1
1.353231792E1,5.316610068E-1,1.180435896E-2,-7.241443294E-1,8.984362965E-1
1.354226792E1,3.960924348E-1,-4.358631492E-2,-5.833182335E-1,7.064341054E-1
1.355221892E1,4.277834666E-1,-2.318052632E-1,-3.717460907E-1,6.123132615E-1
1.356216892E1,4.155996233E-1,-3.334228545E-1,-3.154397428E-2,5.337498189E-1
1.357211892E1,8.850842625E-2,-3.866839725E-1,2.680726182E-1,4.787704719E-1
1.358206892E1,-2.093490314E-1,-5.407230216E-1,1.931154066E-1,6.111480699E-1
1.359201992E1,-2.171269977E-1,-6.345316565E-1,1.901228017E-1,6.970805089E-1
1.360196992E1,-9.284530610E-2,-5.623594737E-1,2.307551032E-1,6.149116572E-1
1.361191992E1,1.335299402E-2,-3.425275540E-1,3.740417075E-1,5.073565085E-1
1.362187092E1,-3.075547725E-2,-1.389772063E-1,4.028696501E-1,4.272756935E-1
1.363182092E1,-2.767262051E-1,3.200707376E-2,1.309571654E-1,3.078175182E-1
1.364177092E1,-5.857609078E-1,1.623374176E-1,-3.567906672E-1,7.048183159E-1
1.365172192E1,-7.354396883E-1,1.832493997E-1,-9.681720275E-1,1.229556405E0
1.366167192E1,-7.108951235E-1,2.067400038E-1,-1.176591936E0,1.390137364E0
1.367162192E1,-5.974708343E-1,2.394224310E-1,-1.135210606E0,1.304989509E0
1.368157192E1,-4.112589428E-1,1.349092984E-1,-9.193571323E-1,1.016145646E0
1.369152292E1,-1.987439364E-1,3.344139576E-2,-3.533115739E-1,4.067512107E-1
1.370147329E1,-6.107767582E-2,-4.032941580E-2,1.553242671E-1,1.717048987E-1
1.371142329E1,-8.080238074E-2,5.242028832E-2,4.879214948E-1,4.973372060E-1
1.372137429E1,-1.037933403E-1,3.334433198E-2,5.511222947E-1,5.618012866E-1
1.373132429E1,-1.535949531E-1,1.523761010E-1,2.768299931E-1,3.513470234E-1
1.374127429E1,-1.985606262E-1,2.001162779E-1,-1.758719677E-1,3.322706668E-1
1.375122529E1,-1.350797448E-1,1.866080403E-1,-6.283207440E-1,6.692204835E-1
1.376117529E1,-8.856163591E-2,1.267688048E-1,-7.375332838E-1,7.535707253E-1
1.377112529E1,-5.111869812E-2,8.329007864E-2,-6.280108416E-1,6.355690172E-1
1.378107529E1,-3.526163399E-2,1.609446108E-2,-2.923777395E-1,2.949358525E-1
1.379102629E1,-7.479962915E-2,-6.971986055E-2,1.137897402E-1,1.529834908E-1
1.380097629E1,-1.646926761E-1,-4.963233590E-2,4.627574176E-1,4.936916789E-1
1.381092629E1,-2.595809993E-1,-7.368661165E-3,6.240797585E-1,6.759527627E-1
1.382087729E1,-3.572382715E-1,-2.093946397E-2,5.808735126E-1,6.822548508E-1
1.383082729E1,-3.907843325E-1,1.191721022E-2,4.060756785E-1,5.636948386E-1
1.384077729E1,-3.454950160E-1,1.026127875E-2,3.310067850E-1,4.785787204E-1
1.385072729E1,-2.165674192E-1,-9.157441378E-2,1.796492690E-1,2.959073844E-1
1.386067829E1,-1.184871009E-1,-8.236095607E-2,1.045207340E-1,1.781771702E-1
1.387062829E1,5.630342424E-2,-2.343037784E-2,1.514978492E-1,1.633115321E-1
1.388057829E1,2.513025114E-1,-3.473830819E-3,8.355495751E-2,2.648517522E-1
1.389052929E1,4.130160311E-1,3.885299385E-2,1.030448967E-1,4.274459589E-1
1.390047929E1,4.368568835E-1,7.222831607E-2,1.234218585E-1,4.596670767E-1
1.391042929E1,4.186121088E-1,3.183048785E-2,2.297944057E-1,4.785966428E-1
1.392038029E1,4.075620407E-1,-9.383202374E-2,5.502481359E-1,6.911470732E-1
1.393033029E1,4.462574521E-1,-2.787671757E-1,6.670503616E-1,8.495958079E-1
1.394028029E1,4.408139867E-1,-3.018478900E-1,7.843940395E-1,9.490538071E-1
1.395023029E1,4.375293133E-1,-3.512276262E-1,7.823206168E-1,9.627140245E-1
1.396018129E1,3.567842352E-1,-3.583299467E-1,8.016836715E-1,9.478354553E-1
1.397013129E1,1.542466253E-1,-3.054170305E-1,7.551801807E-1,8.290770104E-1
1.398008129E1,-1.149094820E-2,-3.641274610E-1,6.808901364E-1,7.722255030E-1
1.399003229E1,-7.248150051E-2,-4.247285888E-1,7.928268939E-1,9.023427430E-1
1.399998229E1,-1.221942356E-1,-5.385066345E-1,9.332243890E-1,1.084356301E0
1.400993229E1,-1.196682385E-1,-6.369184899E-1,1.172779552E0,1.339924448E0
1.401988329E1,-6.976079106E-2,-8.659293687E-1,1.407091516E0,1.653664650E0
1.402983329E1,-6.774964124E-2,-1.005727524E0,1.854350889E0,2.110614860E0
1.403978329E1,-6.894744337E-2,-1.137655035E0,2.234122868E0,2.508050581E0
1.404973329E1,-1.014936304E-1,-1.274587470E0,2.421530222E0,2.738372289E0
1.405968429E1,-4.006690505E-1,-1.203724771E0,2.597631986E0,2.890878923E0
1.406963429E1,-6.399762914E-1,-1.127491405E0,2.968413870E0,3.239180055E0
1.407958429E1,-5.253542000E-1,-1.129378594E0,3.329713326E0,3.555064539E0
1.408953529E1,-3.502277523E-1,-1.131374833E0,3.664232533E0,3.850878932E0
1.409948529E1,-3.621180654E-2,-1.039205465E0,3.789919603E0,3.929980902E0
1.410943529E1,3.369955033E-1,-9.167790949E-1,3.291486568E0,3.433356042E0
1.411938529E1,6.297337237E-1,-9.632787850E-1,2.348392664E0,2.615228228E0
1.412933629E1,6.605318856E-1,-9.896836415E-1,1.699145905E0,2.074336734E0
1.413928629E1,6.965320230E-1,-8.736012080E-1,1.360930088E0,1.760814196E0
1.414923629E1,8.674180698E-1,-8.586700505E-1,1.095431998E0,1.640030374E0
1.415918729E1,8.221021485E-1,-6.499674287E-1,9.553227711E-1,1.418080110E0
1.416913729E1,5.951763868E-1,-4.296101367E-1,8.457108665E-1,1.119833323E0
1.417908729E1,5.701146358E-1,-4.864336708E-1,8.192802823E-1,1.110346160E0
1.418903829E1,6.937165886E-1,-5.840529361E-1,7.379180306E-1,1.169137955E0
1.419898829E1,7.191975850E-1,-7.924775228E-1,8.961185431E-1,1.395813108E0
1.420893829E1,7.832678658E-1,-9.804006019E-1,1.341444241E0,1.836890455E0
1.421888829E1,7.049391496E-1,-1.467912061E0,1.723331743E0,2.370986571E0
1.422883929E1,8.169893432E-1,-1.761480293E0,2.441550504E0,3.119527733E0
1.423878929E1,1.426960940E0,-1.514175377E0,3.117067634E0,3.747673309E0
1.424873929E1,2.612502040E0,-1.034355492E0,3.388502986E0,4.401932607E0
1.425869029E1,4.120846281E0,-6.301176665E-1,2.940119779E0,5.101247559E0
1.426864029E1,5.517097644E0,-3.180872159E-1,2.152929600E0,5.930822182E0
1.427859029E1,6.316376941E0,-3.977153295E-1,1.294649559E0,6.459946797E0
1.428854129E1,6.098960506E0,-6.702613601E-1,4.420781547E-1,6.151585376E0
1.429849129E1,5.329800217E0,-7.750337436E-1,-3.588453788E-1,5.397797483E0
1.430844129E1,4.384097870E0,-8.598754540E-1,-1.390660548E0,4.679063655E0
1.431839129E1,3.597743259E0,-1.302863143E0,-1.585049478E0,4.141689363E0
1.432834229E1,3.111299356E0,-1.576757980E0,-9.464604387E-1,3.614157823E0
1.433829229E1,2.894560613E0,-1.527254137E0,-3.678764033E-1,3.293375076E0
1.434824229E1,3.106722740E0,-1.136498310E0,1.714786622E-1,3.312515588E0
1.435819329E1,3.442803739E0,-1.288356347E0,-1.525528331E-1,3.679134685E0
1.436814329E1,3.579536199E0,-1.395773353E0,-9.610471952E-1,3.960413408E0
1.437809329E1,3.360650944E0,-1.008085268E0,-1.646871797E0,3.875873758E0
1.438804329E1,3.077686052E0,-1.000393913E0,-1.947005868E0,3.776740826E0
1.439799429E1,2.614522253E0,-1.077503339E0,-2.388798094E0,3.701769359E0
1.440794429E1,2.205359244E0,-1.325978795E0,-2.560530818E0,3.630171790E0
1.441789429E1,2.024624147E0,-1.621758152E0,-2.866819668E0,3.866245912E0
1.442784529E1,2.008782871E0,-2.098343503E0,-3.017430494E0,4.188453279E0
1.443779529E1,1.628285252E0,-2.130514592E0,-3.556943142E0,4.454464031E0
1.444774529E1,1.292661506E0,-1.828696961E0,-4.319379718E0,4.865403117E0
1.445769629E1,7.122779900E-1,-1.680009868E0,-4.822708041E0,5.156383029E0
1.446764629E1,1.865951765E-1,-1.640457109E0,-5.107505450E0,5.367730359E0
1.447759629E1,-2.304925632E-1,-1.725612303E0,-4.759759841E0,5.068153351E0
1.448754729E1,-3.556984073E-1,-2.213261318E0,-4.110977935E0,4.682433833E0
1.449749729E1,-4.206340760E-1,-2.288099685E0,-4.023806475E0,4.647940591E0
1.450744729E1,-2.782473582E-1,-2.497715349E0,-4.453416027E0,5.113601262E0
1.451739729E1,-7.927128732E-2,-2.471084790E0,-5.323378220E0,5.869488875E0
1.452734829E1,8.212238967E-2,-2.380516536E0,-6.117598506E0,6.564953506E0
1.453729829E1,-1.023321211E-2,-2.299585663E0,-6.915782619E0,7.288089473E0
1.454724829E1,4.453707218E-2,-2.355232445E0,-7.188407294E0,7.564542474E0
1.455719929E1,-3.500558442E-1,-2.273206388E0,-6.636868678E0,7.024103660E0
1.456714929E1,-6.807462949E-1,-2.113756910E0,-6.516853407E0,6.884821139E0
1.457709929E1,-7.365462738E-1,-1.945749886E0,-6.295520507E0,6.630386225E0
1.458704929E1,-5.754092896E-1,-1.856372271E0,-6.327253931E0,6.619014743E0
1.459700029E1,-1.227722329E-1,-1.788396343E0,-6.337285999E0,6.585941720E0
1.460695029E1,2.238548040E-1,-1.787927688E0,-5.851468332E0,6.122620194E0
1.461690029E1,4.639718843E-1,-1.703874548E0,-5.516651502E0,5.792400381E0
1.462685129E1,4.318133676E-1,-1.689576644E0,-5.487189721E0,5.757636933E0
1.463680129E1,2.167369884E-1,-1.932661040E0,-5.549012332E0,5.879939751E0
1.464675129E1,-2.322864890E-1,-2.073073884E0,-5.474392505E0,5.858375682E0
1.465670229E1,-4.237857252E-1,-2.192752794E0,-5.027240721E0,5.500991585E0
1.466665229E1,3.781242335E-1,-2.139574560E0,-4.224064840E0,4.750103263E0
1.467660229E1,1.473168561E0,-2.268777561E0,-3.905952920E0,4.751215154E0
1.468655229E1,2.439531460E0,-2.040431656E0,-4.141009527E0,5.221363327E0
1.469650325E1,3.017618190E0,-1.807037997E0,-4.854135656E0,5.994500716E0
1.470645325E1,3.321878057E0,-1.961721556E0,-5.251749244E0,6.516448066E0
1.471640325E1,2.974049417E0,-2.589546748E0,-5.387774776E0,6.676738674E0
1.472635425E1,2.429856657E0,-3.273657238E0,-4.486460104E0,6.062124987E0
1.473630425E1,2.120702671E0,-3.477804002E0,-2.893332698E0,4.996386154E0
1.474625425E1,2.158165197E0,-3.242362356E0,-1.262939524E0,4.094582629E0
1.475620525E1,2.596609308E0,-2.847969414E0,-4.017592639E-1,3.874883248E0
1.476615525E1,3.565669527E0,-2.567535489E0,-4.156025469E-2,4.394082944E0
1.477610525E1,4.925621375E0,-2.321138500E0,-1.886206520E-1,5.448394958E0
1.478605525E1,6.313726398E0,-2.347187261E0,-6.559406519E-1,6.767768259E0
1.479600625E1,7.207567450E0,-2.425502528E0,-8.522609174E-1,7.652348642E0
1.480595625E1,7.668899902E0,-2.475937394E0,-1.514011363E0,8.199665974E0
1.481590625E1,7.791038296E0,-2.937139453E0,-2.325713654E0,8.644999126E0
1.482585725E1,8.137971143E0,-3.352052028E0,-2.428728729E0,9.130254671E0
1.483580725E1,8.613797087E0,-3.746850182E0,-2.046746503E0,9.613821186E0
1.484575725E1,8.992774429E0,-3.826729287E0,-1.604439722E0,9.903942437E0
1.485570725E1,9.424656794E0,-3.932976704E0,-1.651826727E0,1.034509512E1
1.486565825E1,9.798965135E0,-4.850185277E0,-5.147186995E-1,1.094572749E1
1.487560825E1,8.891342195E0,-4.791452627E0,9.860241616E-1,1.014821304E1
1.488555825E1,7.015140846E0,-4.509453987E0,3.064178984E0,8.884625439E0
1.489550925E1,5.040354856E0,-4.203422122E0,3.935618184E0,7.652648241E0
1.490545925E1,3.117260592E0,-3.735746904E0,4.687692323E0,6.756299124E0
1.491540925E1,1.941725101E0,-3.349852890E0,5.009173994E0,6.331163784E0
1.492536025E1,1.387522055E0,-2.963812112E0,4.786338944E0,5.798141097E0
1.493531025E1,1.303179477E0,-2.642556728E0,4.329805888E0,5.237232269E0
1.494526025E1,1.809239620E0,-2.269116114E0,3.724031423E0,4.721297065E0
1.495521025E1,2.383294987E0,-1.794087145E0,3.072565060E0,4.282464212E0
1.496516125E1,2.311621571E0,-1.333748721E0,2.524239489E0,3.673454088E0
1.497511125E1,1.799819756E0,-1.173280073E0,2.114438549E0,3.014429907E0
1.498506125E1,1.073371916E0,-1.198705521E0,1.942786517E0,2.522586301E0
1.499501225E1,3.685533647E-1,-1.140149165E0,2.283411972E0,2.578709354E0
1.500496225E1,-8.595640898E-2,-1.275834973E0,2.820840672E0,3.097141502E0
1.501491225E1,-3.243147198E-1,-1.426958601E0,3.314241008E0,3.622924833E0
1.502486225E1,-4.940573437E-1,-1.211163014E0,3.653736781E0,3.880824780E0
1.503481325E1,-2.907125256E-1,-1.055127141E0,3.316482246E0,3.492400542E0
1.504476325E1,2.106669208E-1,-7.143473196E-1,2.270643992E0,2.389664575E0
1.505471325E1,3.160008562E-1,-3.640833145E-1,1.049188709E0,1.154647196E0
1.506466425E1,-3.713661678E-2,-1.211110389E-1,9.177906632E-2,1.564302051E-1
1.507461425E1,-4.331896925E-1,-4.745600224E-2,-3.006848788E-1,5.294495049E-1
1.508456425E1,-7.125595334E-1,-2.247605377E-1,-1.302104759E-1,7.584280823E-1
1.509451425E1,-9.536751719E-1,-5.286917907E-1,3.569783628E-1,1.147364325E0
1.510446525E1,-9.301155706E-1,-7.509304243E-1,1.230483384E0,1.715546804E0
1.511441525E1,-5.808278313E-1,-6.678695565E-1,2.062295419E0,2.244208794E0
1.512436525E1,1.400259410E-1,-5.836176109E-1,2.176523700E0,2.257758224E0
1.513431625E1,8.055735317E-1,-3.142106581E-1,1.976785737E0,2.157628074E0
1.514426625E1,1.111948702E0,-3.454593480E-2,1.409143889E0,1.795357857E0
1.515421625E1,1.150197970E0,-1.493144989E-2,6.427931875E-1,1.317710667E0
1.516416625E1,8.664428274E-1,1.287761539E-1,8.715625763E-2,8.802855697E-1
1.517411725E1,4.681112378E-1,1.699931771E-1,-5.555012745E-1,7.460613093E-1
1.518406725E1,1.092015032E-1,1.279014105E-1,-1.186006538E0,1.197871132E0
1.519401725E1,-1.528169263E-1,1.965939152E-1,-1.388407908E0,1.410559711E0
1.520396825E1,-2.913808989E-1,8.606224358E-2,-1.219039214E0,1.256330427E0
1.521391825E1,-3.414239652E-1,-3.065110445E-3,-8.355986917E-1,9.026654377E-1
1.522386825E1,-4.696509194E-1,-4.680286825E-2,-3.509837973E-1,5.881769466E-1
1.523381925E1,-5.733516179E-1,6.697868586E-2,7.697567046E-2,5.823602630E-1
1.524376925E1,-4.686013076E-1,1.558686429E-1,3.541775465E-1,6.077202924E-1
1.525371925E1,-1.726293942E-1,2.816136003E-1,2.103547525E-1,3.916072644E-1
1.526366925E1,1.325910236E-1,3.905940056E-1,-3.381362951E-1,5.333668632E-1
1.527362025E1,3.141878905E-1,3.478853577E-1,-8.141756630E-1,9.394787187E-1
1.528357025E1,3.009545086E-1,3.061438394E-1,-1.009833439E0,1.097297244E0
1.529352025E1,1.584136435E-1,2.718768167E-1,-9.663862878E-1,1.016323936E0
1.530347125E1,-2.139426772E-2,3.064876556E-2,-1.050909544E0,1.051574026E0
1.531342125E1,-8.290182352E-2,-6.785050571E-2,-9.755167150E-1,9.813813045E-1
1.532337125E1,-4.552919850E-2,-5.399552822E-2,-6.394398093E-1,6.433286056E-1
1.533332125E1,7.819532655E-2,-1.564375770E-1,-1.844773149E-1,2.542028802E-1
1.534327225E1,2.702324335E-1,-1.244305032E-1,3.339935428E-1,4.472809016E-1
1.535322225E1,3.663062797E-1,-4.620820642E-2,3.999016035E-1,5.442763833E-1
1.536317225E1,4.298948961E-1,5.604790092E-2,1.634752858E-1,4.633305062E-1
1.537312325E1,4.895743565E-1,7.934671640E-4,-6.788792789E-2,4.942594975E-1
1.538307325E1,5.297453128E-1,-3.886059523E-3,-3.417732632E-1,6.304396572E-1
1.539302325E1,3.944446164E-1,6.129811585E-2,-6.233430094E-1,7.402030273E-1
1.540297325E1,3.358836553E-1,8.722525477E-2,-7.156301987E-1,7.953317900E-1
1.541292425E1,3.600187688E-1,5.034686565E-2,-5.810278791E-1,6.853770620E-1
1.542287425E1,3.070741314E-1,7.087351620E-2,-2.390178037E-1,3.955339277E-1
1.543282425E1,1.905931371E-1,7.489464641E-2,-2.761020148E-1,3.437546720E-1
1.544277525E1,6.623521239E-2,1.502646714E-1,-3.016549319E-1,3.434563623E-1
1.545272525E1,-1.607582308E-2,1.278429383E-1,-3.717729878E-1,3.934684275E-1
1.546267525E1,-9.621271759E-2,6.384984076E-2,-2.825187492E-1,3.052057222E-1
1.547262625E1,-1.688085312E-1,3.351331651E-2,-2.018944162E-1,2.652938331E-1
1.548257625E1,-2.180637217E-1,-1.043084800E-2,-1.173425084E-1,2.478504662E-1
1.549252625E1,-2.347882202E-1,-7.223240912E-2,-3.989262879E-2,2.488663318E-1
1.550247625E1,-2.113496563E-1,-1.857777357E-1,-6.162965298E-3,2.814605238E-1
1.551242725E1,-2.016587734E-1,-2.341920966E-1,6.480235219E-2,3.157713474E-1
1.552237725E1,-1.743820240E-1,-1.645283693E-1,1.068303841E-1,2.624717234E-1
1.553232725E1,-6.457262971E-2,-2.261784875E-1,6.935382485E-2,2.452270086E-1
1.554227825E1,5.090490930E-2,-2.118925703E-1,1.177442122E-1,2.476963274E-1
1.555222825E1,9.869793043E-2,-1.961080116E-1,1.808801079E-1,2.844595703E-1
1.556217825E1,1.081226188E-1,-2.308872503E-1,2.080509496E-1,3.290662861E-1
1.557212825E1,2.563631304E-2,-2.293090868E-1,2.768785250E-1,3.604186392E-1
1.558207925E1,3.928532235E-2,-2.282823157E-1,4.753131437E-1,5.287520561E-1
1.559202925E1,1.402901255E-1,-2.397984070E-1,5.956593668E-1,6.572630194E-1
1.560197925E1,2.969751859E-1,-3.317482120E-1,7.044421363E-1,8.333605826E-1
1.561193025E1,3.257476531E-1,-2.189858276E-1,6.603336650E-1,7.681841415E-1
1.562188025E1,2.966753700E-1,-1.166332412E-1,4.325775987E-1,5.373480874E-1
1.563183025E1,2.106730603E-1,-2.796723247E-3,1.626672006E-1,2.661795976E-1
1.564178025E1,8.590378404E-2,1.129366314E-1,6.751896858E-2,1.571399184E-1
1.565173125E1,-7.621801749E-2,1.032296687E-1,-1.045242423E-1,1.655018668E-1
1.566168125E1,-1.918289461E-1,1.266477674E-1,-2.451088482E-1,3.360302799E-1
1.567163125E1,-1.818849519E-1,1.318079352E-1,-3.028962958E-1,3.770963186E-1
1.568158225E1,-1.428593190E-1,1.312506956E-1,-2.327156746E-1,3.029721362E-1
1.569153225E1,-1.796460530E-1,3.633284390E-2,-9.259065986E-2,2.053431523E-1
1.570148217E1,-2.793849340E-1,-5.138533115E-2,-1.912097991E-1,3.424289428E-1
1.571143317E1,-3.582119791E-1,1.147030753E-1,-1.779570848E-1,4.161025613E-1
1.572138317E1,-2.890376638E-1,1.342637658E-2,-1.452962923E-1,3.237808692E-1
1.573133317E1,-2.407098417E-1,5.705245256E-2,-1.335913360E-2,2.477391303E-1
1.574128317E1,-2.770927524E-1,-4.714609981E-3,7.618921995E-3,2.772375677E-1
1.575123417E1,-2.707355133E-1,-1.540624380E-2,-1.233563697E-1,2.979125115E-1
1.576118417E1,-1.129483990E-1,2.398001611E-2,5.672793210E-2,1.286485145E-1
1.577113417E1,9.377742536E-2,-2.138911486E-2,8.912910819E-2,1.311323670E-1
1.578108517E1,2.551238130E-1,-5.167126000E-2,1.898386270E-1,3.221750819E-1
1.579103517E1,3.147007278E-1,-8.719835758E-2,1.360307944E-1,3.537576553E-1
1.580098517E1,3.864386087E-1,-1.055761564E-1,1.279335701E-1,4.205331395E-1
1.581093517E1,4.872524272E-1,-1.481959265E-1,1.371136987E-1,5.274249964E-1
1.582088617E1,5.799913140E-1,-1.269237560E-1,1.724478382E-1,6.182538484E-1
1.583083617E1,5.473470399E-1,-9.322859108E-2,1.602710116E-1,5.778989093E-1
1.584078617E1,4.411558295E-1,-8.414201796E-2,1.539261979E-1,4.747542727E-1
1.585073717E1,3.068084485E-1,-5.387332141E-2,1.937463212E-1,3.668397413E-1
1.586068717E1,2.300527795E-1,-5.301202655E-2,1.960068548E-1,3.068440051E-1
1.587063717E1,1.784293205E-1,-2.573184192E-2,8.642360151E-2,1.999204567E-1
1.588058717E1,1.671867328E-1,7.470110357E-2,-5.680862367E-2,1.917260499E-1
1.589053817E1,1.706938928E-1,1.017976856E-1,-1.392771685E-1,2.426876665E-1
1.590048817E1,1.870536713E-1,1.111719418E-1,-1.311600637E-1,2.540693584E-1
1.591043817E1,2.031886243E-1,9.964064777E-2,2.600315273E-2,2.277938535E-1
1.592038917E1,1.887944604E-1,4.866637588E-2,1.495366931E-1,2.457091513E-1
1.593033917E1,1.884556143E-1,1.525187731E-2,8.197913289E-2,2.060793938E-1
1.594028917E1,1.403730829E-1,5.819382906E-2,-7.270837247E-2,1.684566163E-1
1.595024017E1,9.767437533E-2,1.641430378E-2,-4.418957216E-1,4.528592957E-1
1.596019017E1,6.172342770E-2,-1.644704819E-2,-6.842183715E-1,6.871936167E-1
1.597014017E1,4.422249198E-3,1.982381523E-2,-7.225515479E-1,7.228369659E-1
1.598009017E1,-3.857992887E-3,-3.209829032E-2,-7.016822505E-1,7.024266261E-1
1.599004117E1,3.625229850E-2,-8.348011315E-2,-5.605222785E-1,5.678629968E-1
